time,left_angular_velocity_x,left_angular_velocity_y,left_angular_velocity_z,left_linear_acceleration_x,left_linear_acceleration_y,left_linear_acceleration_z,right_angular_velocity_x,right_angular_velocity_y,right_angular_velocity_z,right_linear_acceleration_x,right_linear_acceleration_y,right_linear_acceleration_z,pelvis_angular_velocity_x,pelvis_angular_velocity_y,pelvis_angular_velocity_z,pelvis_linear_acceleration_x,pelvis_linear_acceleration_y,pelvis_linear_acceleration_z,label
0.01,0.0129767984551516,0.243686429029826,-0.0880685756783335,9.78960395746245,-0.501605955645087,-1.35322100897863,0.0280793024198202,0.335614624274732,0.0657428180082218,9.68741101942426,0.439416942416593,-1.56875563348394,0.0701910171437698,0.176934598771231,0.0521806708766154,9.78012097729957,0.437780215933385,-0.119976081388724,SIT_DOWN
0.02,0.0183385389092961,0.26291777057081,-0.0937421788034567,9.81064409680027,-0.376208965164011,-1.40419442306107,0.0582193297324956,0.343255026925162,0.0587589940159163,9.81588008037732,0.422995097388187,-1.55312303437775,0.0773115897581772,0.178797874197126,0.0589516359722163,9.85184727615134,0.447450030343034,-0.110115736850011,SIT_DOWN
0.03,0.0149668908448006,0.27096377580162,-0.097281574066446,9.76401595759473,-0.386500087794555,-1.37223788308174,0.081306263260588,0.359050993603515,0.0563808336666814,9.86271295343919,0.489221623852316,-1.57984610142494,0.0885060870402996,0.18670249692719,0.067057347518377,9.89896688640127,0.527376254617446,-0.195705006968512,SIT_DOWN
0.04,0.0149700155856105,0.279635678692019,-0.0966890321582263,9.74967563621639,-0.215521245706291,-1.37574729336443,0.104012355849123,0.370141551639418,0.0526778117053016,9.86153577701229,0.447063196983869,-1.50332679704825,0.0986524922023009,0.193560566811434,0.0708986807682289,9.90914347390767,0.54378351244168,-0.286366385059722,SIT_DOWN
0.05,0.0274347329335072,0.27593800128354,-0.109174315178046,9.73325525177178,-0.180220110929581,-1.33756109236497,0.10749812470395,0.366824286241355,0.0446181385971132,9.7636885088645,0.4255500667642,-1.58612702503225,0.0960642533860853,0.205156382843486,0.0777853789783645,9.87843368606814,0.588824444660694,-0.220414197703704,SIT_DOWN
0.06,0.0152409506800458,0.290621959630287,-0.105435454733478,9.72608905949756,-0.128129197060384,-1.37381474573627,0.114755936050488,0.357177177440764,0.0394521267100219,9.57977077329393,0.455023299829137,-1.81699085583665,0.0899702385339944,0.216103090211569,0.0769501312115529,9.87140317873586,0.638717225153676,-0.1557810206263,SIT_DOWN
0.07,-0.004373569440086,0.302631467351418,-0.106449857206886,9.7412298740108,-0.105550121078632,-1.18950073181604,0.120605090972252,0.341646400135093,0.0360492889700466,9.58240730833303,0.412367949269582,-1.8309280265047,0.0774713814157819,0.219901798741833,0.082845317137166,9.85256723175668,0.635939389272462,-0.064431701464038,SIT_DOWN
0.08,-0.0374368438282366,0.318645333727888,-0.113908996699955,9.75279937555857,-0.0771340139526877,-1.1304969767204,0.118181444912506,0.352100700870396,0.0489116936264597,9.59651356132579,0.301148070985152,-1.74137112166822,0.0723412293188698,0.223393838247404,0.0813987827113442,9.83206891651918,0.603591807461532,-0.0556734617701936,SIT_DOWN
0.09,-0.0608949488266031,0.329899296269117,-0.113910850491646,9.72597346122925,0.0264278366092384,-1.04287117834343,0.135320658401239,0.355187642530496,0.0500679083772559,9.62624959132415,0.204460601177463,-1.56221369871525,0.0785784197848838,0.242886940112823,0.0824018586674076,9.80229824255382,0.599574635386352,-0.0845606481313784,SIT_DOWN
0.1,-0.0919956831181449,0.340026841292441,-0.120225295452908,9.7079848465209,0.142578113681788,-0.798697722163343,0.168924026137668,0.370333918202108,0.0551967265642286,9.70385475304394,0.258422369470083,-1.4030829306687,0.0796104640162034,0.265988082215575,0.0773541431709369,9.80198992830588,0.562044632584859,-0.142969514072335,SIT_DOWN
0.11,-0.132869893810103,0.353251702244377,-0.127323717647219,9.72987184355184,0.184105337260278,-0.683917043758467,0.181287238509196,0.409014899389606,0.0715844726091963,9.75027564938819,0.365763901361197,-1.34595532703643,0.0730532599358321,0.281739213248377,0.0764465753179141,9.87330501910865,0.593563249597614,-0.0736906605993863,SIT_DOWN
0.12,-0.18728588449688,0.390081567986991,-0.136918321493831,9.83942543027522,0.0948619123710448,-0.695141569533652,0.205243427269008,0.440822371570381,0.083583655501159,9.75330755245027,0.48911477610326,-1.20726580538706,0.0789481019846681,0.304978607970298,0.0801630832232196,9.93497802086462,0.623361267043402,-0.123834876190831,SIT_DOWN
0.13,-0.245788259844764,0.453583270388739,-0.150831903719638,9.86428390155392,-0.0276695906246933,-0.617559083602738,0.223831195342247,0.495076783010554,0.0921405395675208,9.84999468977077,0.650902785801827,-1.12780308686797,0.0841192543443978,0.334916190725934,0.0828750961320005,10.0690291569702,0.696993274514112,-0.0937273796670378,SIT_DOWN
0.14,-0.243270682585814,0.487702598202855,-0.161590723925818,9.84588720290719,-0.145700373313105,-0.62953553940062,0.252204409654901,0.54845037711279,0.0964303517410441,9.81431381351333,0.784110680965661,-0.936200568355682,0.0660042898771035,0.367847500190388,0.0801341241478516,10.0909332101409,0.742798065918811,0.0367875094237973,SIT_DOWN
0.15,-0.216022002391698,0.534276896381056,-0.180521779808981,9.8572969294536,-0.263761070762786,-0.746412209498147,0.269066184214577,0.572387966104991,0.0932043012530312,9.81091854883482,0.737902428356196,-0.841946280702541,0.0492541212693924,0.400233743982269,0.0783440704407977,10.0110346535636,0.778521844898167,0.123868675010564,SIT_DOWN
0.16,-0.209299686895344,0.559261551831255,-0.18545713762771,9.86802730378768,-0.44026500498268,-0.722243715668848,0.249703278599857,0.611683833037062,0.0844551547149029,9.8455641896131,0.770913936605642,-0.7713613438363,0.0239083482753426,0.42441273745343,0.0718515915623849,9.90552107799504,0.804738044564638,0.180737517074346,SIT_DOWN
0.17,-0.205876767291012,0.566432152997787,-0.190229484738453,9.8286442875841,-0.423612115495692,-0.635580661078867,0.253171326035277,0.642759468025744,0.0886316608548313,9.84840181003279,0.753445979492879,-0.602591234718072,-0.0057023267999664,0.455288360194604,0.0626655699600834,9.86639997172463,0.765725443848921,0.300350482290234,SIT_DOWN
0.18,-0.20486736369231,0.57943294042232,-0.19083921565373,9.81382821541677,-0.25552969874622,-0.459043129546127,0.282473168067966,0.647469253035318,0.0910571161514925,9.87833857739815,0.451948204928122,-0.328606793031102,-0.0377935647226776,0.488601468847675,0.0491511815894343,9.81877538950091,0.720666607801156,0.267013742233567,SIT_DOWN
0.19,-0.181003185962226,0.580857005943122,-0.198714942318894,9.75080422317727,-0.200258588922995,-0.510655677476865,0.304532753575969,0.715546791132919,0.100599111587127,10.1266405930352,0.325460270858542,-0.238708538103214,-0.083309575389617,0.532938752170715,0.0350262223505565,9.69917625989263,0.660922492767434,0.26706229359707,SIT_DOWN
0.2,-0.189675855525548,0.572213890138836,-0.195079176010122,9.77319540811848,-0.0365995275689974,-0.238057854378453,0.293162935736005,0.796639444645332,0.116254383577788,9.85699757413196,0.534111760042164,-0.326760757894569,-0.122475032586944,0.578490064927563,0.0192516671024364,9.51551174055762,0.56548398116594,0.345875512158874,SIT_DOWN
0.21,-0.26041554442068,0.565589840843213,-0.198583934643276,9.82814436444772,0.203394956081995,-0.076801194934165,0.286274312882244,0.833668772258783,0.123269051965041,9.67631736995301,0.526607693948596,-0.509018383638931,-0.130666417049273,0.598747503919321,0.0080713906388266,9.44144362104173,0.544356417907134,0.370874953162061,SIT_DOWN
0.22,-0.313482195529225,0.575950416879943,-0.212801536053875,9.81858584139369,0.235263314444249,-0.246010962247831,0.280741321975683,0.883796790377672,0.144819889550428,9.6555899838066,0.551581642278584,-0.733602996778491,-0.132129186608496,0.602445698722098,-0.0036735434284846,9.45931034191813,0.443174556847795,0.443405388209155,SIT_DOWN
0.23,-0.360880885323564,0.605479831246553,-0.207401666075764,9.7894090649439,0.377268424547508,-0.430188940816823,0.242879818396958,0.90273572333047,0.147713580151376,9.50121674200624,0.44729115204255,-0.795697542408113,-0.112291418223832,0.6104996016253,-0.0111928203212496,9.48442982059692,0.418584358608364,0.417947025973215,SIT_DOWN
0.24,-0.420502281715432,0.632104281652525,-0.207114148344544,9.84338809658007,0.558213468579056,-0.225850742213656,0.220176576146912,0.882137900025263,0.150016643602105,9.55956389670831,0.256015660453139,-0.967991448973527,-0.0832752372725456,0.622152668718397,-0.0133912601228348,9.59255356199855,0.480607260092625,0.382086527877256,SIT_DOWN
0.25,-0.47166969879399,0.672039416395948,-0.203847655765255,9.91273887023462,0.582631773926869,-0.0127776470458113,0.257817258113154,0.867321467385779,0.142696300072845,9.71525075501962,0.166133722525228,-0.75451860489246,-0.0634179793591199,0.636608991212814,-0.005712797952225,9.72991879050238,0.528905895865388,0.456155885646552,SIT_DOWN
0.26,-0.521397405951935,0.722744364569181,-0.202421775723822,9.91511161025464,0.260497514777877,0.0071234274353889,0.315552681860383,0.8571546456996,0.147833273312307,9.82819997680758,-0.168654535861273,-0.618740426220825,-0.0777198665865609,0.67510133665011,0.0082445587184934,9.68639351967746,0.4804649839005,0.491344828092209,SIT_DOWN
0.27,-0.515709827364505,0.789750205309908,-0.200883723972951,9.91055517165306,0.149356154831962,0.095148819661178,0.379015999791283,0.903796313908492,0.15529222113389,9.97040708807714,-0.165500361674276,-0.57130405676763,-0.0901579533135178,0.72235883522103,0.0198723840618904,9.6291032648285,0.502055257635868,0.431981407091534,SIT_DOWN
0.28,-0.464806193677541,0.820870384231856,-0.203680943399969,9.81126442592804,-0.0633187905086938,0.0363873007896579,0.471433681256775,0.94558272351201,0.157990381693974,9.87987355125563,-0.0793313490430788,-0.255026123228135,-0.103511081241965,0.756720298364218,0.0300782909694166,9.48349425165338,0.465894389058898,0.467634903358223,SIT_DOWN
0.29,-0.451722721209968,0.867404359952438,-0.206074928072306,9.81053974713774,-0.132778768836817,-0.0891306491529927,0.520751658773272,0.9344431216285,0.150205695729464,9.6447744548729,-0.159270545351989,-0.0497702734851221,-0.103511081241965,0.756720298364218,0.0300782909694166,9.48349425165338,0.465894389058898,0.467634903358223,SIT_DOWN
0.3,-0.464604259189419,0.941996705311112,-0.214994440311994,9.76318921331089,-0.14107690344561,0.0195548756101088,0.537647177169871,0.911850201654531,0.128615112282852,9.74892508228668,-0.229419142997145,0.16305672085661,-0.0878836403300707,0.787573143468369,0.0302514025480824,9.44495911783844,0.496667217776439,0.691825767834726,SIT_DOWN
0.31,-0.538712516760549,0.958695002651649,-0.226444995669337,9.71030262762079,-0.146741635977345,0.364408607326979,0.574564569214873,0.979739035421171,0.122664113334047,9.89034937757902,-0.121018420996064,0.157676564142832,-0.0811453017721136,0.791656352034742,0.0391661440013854,9.36050533451027,0.531058251209492,0.652014092294921,SIT_DOWN
0.32,-0.572822311971113,0.911835660010362,-0.212612829407985,9.69051361086321,0.211089083706934,0.129659207418806,0.610757460865542,1.00639647676266,0.110530065735221,9.70274106740974,0.152370904715051,-0.0563106787298319,-0.0697776428701419,0.823649976741857,0.0327663007391897,9.29460494111807,0.594318161864045,0.662069191823298,SIT_DOWN
0.33,-0.552557866128761,0.90514588577749,-0.214525540822513,9.83814610512584,0.381798717294949,0.209251932037521,0.583689400282388,1.01666651487443,0.0858994595846426,9.38223122755789,0.375291385411625,0.22156666643714,-0.0827484465294895,0.87540108167561,0.0239648077283307,9.27613863215141,0.658220659429514,0.731026075641338,SIT_DOWN
0.34,-0.536498355568676,0.921106027718132,-0.212585420871854,9.9753816570064,0.143762851383172,0.283096404376226,0.558756775535321,0.988116547319977,0.0627892617188906,9.34150703709689,0.17586302134746,0.395927378994576,-0.100976381105213,0.908879692840105,0.0133528478695859,9.33312167273161,0.717762259559695,0.793413367362609,SIT_DOWN
0.35,-0.559404931730451,0.91436294591797,-0.193560254518783,10.061106868085,-0.186368396839047,0.327637707069988,0.566354638374527,1.0116720474138,0.0707022234624177,9.74377136262863,-0.106322643171421,0.820951170205418,-0.144680045895343,0.933834230631281,-0.0005689554777164,9.37483167320425,0.71110878538745,0.90299661506886,SIT_DOWN
0.36,-0.589028291021844,0.895686324517955,-0.178300302003089,9.91714097682466,-0.162271069176745,0.554872552505898,0.595025560984882,1.10414249215353,0.0830540868241897,10.2370212137878,-0.16479440225785,0.923466974523452,-0.175552306512987,0.952881394274193,-0.0140865312779652,9.33316043675879,0.604933798030798,1.03879313782729,SIT_DOWN
0.37,-0.551888548384453,0.90472176038984,-0.174920996712749,9.89183177796181,-0.112136389919959,0.760673880236605,0.68951348174555,1.19257621587168,0.0942290665528055,10.1314802004802,0.224193873616513,0.858240806205409,-0.174758597587742,0.975893466591634,-0.0296593231043455,9.22565290264887,0.515056739576248,1.00860842556657,SIT_DOWN
0.38,-0.488788449050947,0.925720491321684,-0.180792588739391,9.72934428909288,-0.241967386940874,0.540731006643357,0.740589516561467,1.13705945619191,0.085733912458172,9.70797105904838,0.251824286891175,1.18500166065,-0.162484592650343,0.985242720598036,-0.0379706589085437,9.11333717127297,0.424402031555582,1.31049491488509,SIT_DOWN
0.39,-0.366841510668597,0.971403311079624,-0.202058225320195,9.62706013412329,-0.353070098738179,0.767927164102523,0.651853750352442,1.10934784348612,0.0824766280204404,9.58592997488228,0.156182331041676,1.25933158970078,-0.16181201108139,1.00317121318154,-0.0444723747935008,8.95313222774787,0.331401582140441,1.30726572485173,SIT_DOWN
0.4,-0.337842140527911,1.04057425595274,-0.225256694493281,9.64679663257521,-0.13301653095114,1.22651322073753,0.551743703184148,1.07400929530371,0.0660028810063444,9.53877549073107,0.329018800552364,1.01042389370402,-0.137892513413061,1.02138545395995,-0.0513293169887109,8.82509189174957,0.305668981728948,1.350671789204,SIT_DOWN
0.41,-0.320217802594249,1.06955752507628,-0.240134461701317,9.78109945984522,0.226727469480618,1.4589163659236,0.482971251271996,1.07678705583901,0.0706713100324267,9.64100096491127,0.439298083825227,0.68372735061552,-0.104679463452986,1.0384046075652,-0.0521164279593254,8.81244958678843,0.37470050774427,1.52153366415257,SIT_DOWN
0.42,-0.265800633075493,1.09187853822326,-0.233877505855633,9.74224490550586,0.489075186085979,1.47510489908992,0.434183998265486,1.02914948122229,0.0837020477711296,9.49876913724395,0.253195080371118,0.847355387001211,-0.0664176177796238,1.02743807706927,-0.0486989240209459,8.83140462341943,0.469018374710359,1.58905516115412,SIT_DOWN
0.43,-0.248045910786761,1.10782146493375,-0.229590991716919,9.62772158586585,0.779538730627021,1.55468705466709,0.358421272273227,0.953462891650708,0.0987384313388498,9.34206709974215,-0.0946301100666278,1.36135061709956,-0.0390769979426913,1.00674101848852,-0.0413128362007266,8.90354149092922,0.634515047879871,1.70873968480374,SIT_DOWN
0.44,-0.254576125587344,1.13557251849849,-0.240922846786998,9.85519987472952,0.593626505958565,1.59478943821992,0.315775894147918,0.901229485685168,0.0923790712508068,9.41693581659975,-0.0984257934066452,1.45066597566374,-0.0349533580082748,0.981644958587878,-0.0324540887536746,8.89982889653431,0.774564119424597,1.53446620553264,SIT_DOWN
0.45,-0.254200829467261,1.16664954059144,-0.2492465182479,9.68254633452163,0.459735283288524,1.82536374711931,0.370657233677487,0.915783141988783,0.0888338413527729,9.81894480575422,-0.152651811046845,1.66287014046967,-0.0351179782136146,0.975507584208291,-0.0192289071015004,8.79688334889864,0.906706371510008,1.53479584623525,SIT_DOWN
0.46,-0.282531505635837,1.12883420539664,-0.250205929821875,9.62707074511617,0.533590539264154,2.06253140772825,0.459335471430338,0.968931637438613,0.101912681207521,9.81277688159201,-0.326126677287606,2.13704962558166,-0.0510450355226195,0.986835675248475,0.003816975493783,8.66069813977463,0.93431542546201,1.69980223002457,SIT_DOWN
0.47,-0.291043629060184,1.02033487116836,-0.241474964029251,9.50222216527097,0.173196247549388,1.58745276428,0.503543146317959,1.00938455558591,0.0885897649377141,9.76543870197833,-0.374984031505359,2.44941261395463,-0.0760914529856055,0.976060231562852,0.012796190883963,8.56686680268938,0.838999533927045,1.62073939831572,SIT_DOWN
0.48,-0.226380987631266,0.978921784335067,-0.252729842565204,9.21055698795586,0.203690361957066,1.16375491151649,0.479814422383889,1.03689498284405,0.0435727347592157,9.39927021069386,-0.406077509062637,2.46513916392935,-0.13664469215347,0.968640716041049,0.0125133612713715,8.53410235351563,0.56642573971683,1.80693117396279,SIT_DOWN
0.49,-0.085253074283056,0.995761871253404,-0.284853147468486,9.28683599793236,0.580612230668866,1.56519075947112,0.434106287990978,1.03504111505551,-0.0142910965682024,9.2808316800937,-0.386828437334116,2.9716888203629,-0.171198719869673,0.972036365293019,-0.0103800979284013,8.5855140863733,0.348823603753131,2.13050753719305,SIT_DOWN
0.5,-0.012101043970842,0.956287335487131,-0.290715454840722,9.61905397630437,0.338818381111234,2.11058854720682,0.362173065971085,1.08328908707485,-0.0399556281825311,9.44619426751604,0.152979920489312,2.66440599309794,-0.178538455139009,0.960471910744972,-0.0463868739137108,8.72422025818785,0.179918299156159,2.22033327984866,SIT_DOWN
0.51,-0.0091726527845113,0.948055459256246,-0.309044139928774,9.68994754858838,0.400189324683573,2.46375144971382,0.296570394296511,1.05513576350659,-0.0503383943402662,9.12010303766305,0.48796422488275,2.45179062150791,-0.150233658263018,0.948767716961868,-0.0834371681810039,8.86303690868308,0.199731543358849,2.1451547980562,SIT_DOWN
0.52,-0.0086247917600602,0.901092161776386,-0.290195044017562,9.68244012405267,0.827884420882636,2.74477176908652,0.204817447500041,0.983309919878264,-0.0158285502371936,9.09609376653919,-0.0128211217408699,2.35820732889251,-0.110572599859705,0.948814088774729,-0.110095859865669,8.94119410365508,0.361549314426595,2.11070843607148,SIT_DOWN
0.53,-0.0065591081123806,0.921634614710967,-0.285255011583961,9.68750135848314,0.833319829404462,2.96065313620717,0.0990033774497421,0.957122807862356,0.0314853126193237,9.21780213023854,-0.178251287037735,2.43657002192443,-0.0718344609989902,0.951629052158584,-0.131069462392864,8.85445540202194,0.573379721682275,1.88270279560898,SIT_DOWN
0.54,-0.0097602342035668,0.916767196496343,-0.256389110454904,9.34775228552576,1.13176644802337,3.09444289665068,0.0364903722881162,0.915423233565385,0.0664895568361034,9.38571567268935,-0.376690920221015,2.79525470329898,-0.0507075489782739,0.970571292887312,-0.130660316740703,8.61692538936994,0.837831824540681,2.10997218958041,SIT_DOWN
0.55,-0.0493022062905438,0.899441797377604,-0.22272935471168,9.22440377897735,1.06391496886363,3.31630952691131,-0.0143932391237175,0.890174168831547,0.0659335333105964,9.60994433640932,-0.42857504171659,2.95113915673666,-0.0693665480584938,0.976549935116062,-0.116675120978132,8.32424909043423,1.00041208709237,2.31307673844895,SIT_DOWN
0.56,-0.115430202607929,0.936717613087477,-0.221955268324099,9.01358342428475,0.859722801189485,2.85719289502499,0.0184240663025984,0.900357567676537,0.0584408907567001,9.6889267363191,-0.152357271479571,3.24363795305859,-0.0834355996754676,0.966900350086511,-0.0854537062937478,7.96011911120048,1.08205400309298,2.53557287833559,SIT_DOWN
0.57,-0.179279214860154,0.961886829183054,-0.247104397574187,8.74824916265737,0.542340213265699,2.79469357460348,0.0114342009629986,0.914792153215552,0.0338021072314405,9.44511542471172,-0.0481453820568446,3.38382796047227,-0.110046558612089,0.935141516683062,-0.0633239565000215,7.80809359715778,1.05372832880516,3.06787945023232,SIT_DOWN
0.58,-0.109027623736436,0.968809590293544,-0.260463919036271,8.53452910229746,0.08753864837525,2.62437504605896,-0.0226194167953815,0.955410583105952,0.0040777071079619,9.21464731643087,0.342806476808618,3.38090181830726,-0.0997933331794711,0.895200385017609,-0.0548187146469962,7.76903386079657,0.850770008760351,2.88682305354026,SIT_DOWN
0.59,-0.0774304368273143,0.98806045603998,-0.296705480328913,8.4745613013317,0.950617747443491,2.84192310811476,-0.0825092419635413,0.979434577260594,-0.0233171052359585,8.89720969512504,0.734697623295535,3.36211118030292,-0.0659350166136947,0.848014514261106,-0.0667761501729787,7.78558773375469,0.698520634538134,2.84089537396087,SIT_DOWN
0.6,-0.0752605929817128,1.02451848626436,-0.350212597265492,8.74076549522319,1.72941155051593,3.51665028225436,-0.0758698671128551,1.00367134782948,-0.0258533504583829,8.45187942275315,0.36920461463592,3.77974401928564,-0.0357671973535262,0.817493924063229,-0.0817265827180241,7.96006785342901,0.479262004323207,2.76206859845608,SIT_DOWN
0.61,-0.129850135584763,1.05240930429993,-0.395331103376599,8.94622008933328,1.69495718070291,3.98029042045929,-0.076493125482195,0.967651972791991,-0.0596142375471003,8.33820775356453,0.226687487525327,3.82912693485778,-0.0215089949578473,0.779434871371835,-0.108262837120875,8.03665122949443,0.386212909356499,2.66986360541995,SIT_DOWN
0.62,-0.197722303702876,0.99669501258928,-0.373373008871607,8.97559480865379,1.6276967779088,4.53571400730564,-0.0670862933727951,1.00003000035615,-0.0542163080584063,8.73644254398493,-0.0157894161400853,3.27020687516218,-0.0079126606666541,0.759027243695359,-0.116563934305903,8.11897285874539,0.37461873842143,2.82724722905391,SIT_DOWN
0.63,-0.211495270187111,0.918463876767032,-0.269559890442894,9.06904775994339,0.799089592152628,3.88047881525541,-0.101756387977977,1.03673432991004,-0.0257078482026787,8.78538104150166,-0.435781502350252,3.68711282568601,-0.0131267853426456,0.740718711568508,-0.112399420093311,8.16680602693065,0.349881337441779,2.93656432439896,SIT_DOWN
0.64,-0.169053661495249,0.907347156940208,-0.217198024860386,9.00905239968415,0.456224700059093,3.72192222569761,-0.136075241602805,1.07121080139791,-0.0173214324893921,9.22759269734141,-0.297983324690155,3.82812166819441,-0.017818232414201,0.710403581887209,-0.0879533225056861,8.03697046613112,0.450909299664249,3.01812746435847,SIT_DOWN
0.65,-0.101417671645382,0.912034471531591,-0.174143315725602,8.6795413256743,0.766946507023742,4.00480308117923,-0.17584033081425,1.11116453998017,-0.0274938356796256,9.39290378533782,0.0651506396699599,3.75444376802628,-0.0178695412842697,0.679254366833858,-0.0578596185789431,7.93503813289139,0.578925481150695,3.43846190487138,SIT_DOWN
0.66,0.0498276032831532,0.912905810166311,-0.188597433523966,8.36870103385612,0.888123493589057,4.03927234767524,-0.169065152247217,1.11993557242257,-0.0600796273190049,9.25552575586385,0.246853012158667,3.79007546417457,-0.0258298160316291,0.647537641630202,-0.0481048518346091,7.71153370594845,0.69521791302423,3.6040489087119,SIT_DOWN
0.67,0.129240853199652,0.903980347134965,-0.231554833681305,8.3140999327866,1.05071734846084,3.954141516547,-0.115386418922014,1.09392990478675,-0.0983917426230836,8.92643125754756,-0.0040301481941553,3.91986282449071,-0.0173069088655308,0.612498759619569,-0.0355684186512677,7.59819745727338,0.811036372458972,3.47199907641724,SIT_DOWN
0.68,0.133670919957063,0.926985718248577,-0.290139978623716,8.2963018357903,1.47632497229609,3.77204738255807,-0.0910593670247461,1.10030672250925,-0.103467050170203,8.72353339056861,-0.164754347042774,4.3708261247553,-0.0685209917854802,0.555949967877687,-0.0466438105155719,7.51668989626032,0.818738360892142,2.90889592258027,SIT_DOWN
0.69,0.0973291133276515,0.931553078289193,-0.335051237332375,8.46902471364761,2.09333469372987,3.94321781932435,-0.0713029435073537,1.15217343944811,-0.102472225128451,8.56653966220313,-0.119290661755951,4.74483370031296,-0.102531385149023,0.569465183706405,-0.0515455659869541,7.51255599001513,0.655528982937662,3.01355709763462,SIT_DOWN
0.7,-0.0048110967937327,0.974860632057118,-0.338015698159706,8.52285934933265,2.63875337072677,4.25093553530351,-0.133649294333156,1.17753201659055,-0.133519507214086,8.18193480400622,0.0720209767508378,4.78251201904375,-0.103044781589055,0.540855339796044,-0.0649795104459945,7.29683788078739,0.353574274642284,3.11890746865293,SIT_DOWN
0.71,-0.101075374800805,0.995158279858452,-0.314307265759421,8.48382221940912,2.80676908114505,4.18229818566685,-0.185861130635333,1.14016631450055,-0.176733097889743,8.01414324260185,0.339264395724699,4.79755497371138,-0.107581295287604,0.481099045969867,-0.0811581808549547,7.06195855592503,0.181024074519752,3.06288291772247,SIT_DOWN
0.72,-0.1761784547863,1.03065424491031,-0.264009606926263,8.64521449599549,2.0620081024179,3.87842524698109,-0.221219976243608,1.13097733406321,-0.202102759719649,7.90772914679283,0.655119320883818,4.46689948150187,-0.108059208321734,0.46530293959474,-0.0910496973651984,7.01274460191039,0.0319134411153432,2.87096187976542,SIT_DOWN
0.73,-0.237702851977939,1.05901799334261,-0.247102132148509,8.2840627871045,1.30043974716796,4.55402145690849,-0.215229787927183,1.13501032568823,-0.177929722337868,7.79086885821975,0.257817231434742,4.31433139578398,-0.109606025323358,0.460055875290452,-0.0922034229302247,7.04551984929577,-0.0264680935937618,3.21515623293073,SIT_DOWN
0.74,-0.252211327199212,1.03287651259762,-0.242320850686222,8.0381957911935,1.12858544614302,4.72325655125247,-0.18437154827215,1.18223373316711,-0.153455505215443,7.69711554650509,0.301973438996211,4.64926144448363,-0.101889521831974,0.441384031572845,-0.0807673135588052,7.1207456186231,-0.0771856297632343,3.76802221569665,SIT_DOWN
0.75,-0.182671943957545,1.07220824675616,-0.240451900476684,8.13508740219378,0.615652883048329,4.58715092538838,-0.168757818421852,1.19150783057382,-0.129889993307854,7.82692163170037,0.510619511635305,4.36122819988451,-0.0707300412784024,0.389817320304317,-0.0685283928698465,7.24686343219716,-0.108649247741806,3.4844929532278,SIT_DOWN
0.76,-0.143496469484145,1.12935474021841,-0.222947919799415,7.99925339824906,0.425263901624435,4.52668563373087,-0.0734852132725562,1.25000600157343,-0.0792453771005818,7.99033918188679,0.0149432158715379,4.22097909305505,-0.038604913033362,0.350510255614883,-0.0514016300317191,7.28533696581847,0.14931556776584,3.50753965777885,SIT_DOWN
0.77,-0.102181324791889,1.168708737318,-0.214318592042809,7.83428798384884,0.370182799905825,4.37881835138967,-0.0516818875433578,1.30520338195305,-0.0725510084504849,8.20101072009725,0.184615312317698,4.56876501979681,-0.0289423907691857,0.33537534924105,-0.0251359410707912,7.30480996458742,0.481650638967965,3.97051463518916,SIT_DOWN
0.78,0.018376482008427,1.18510622294883,-0.226774100583334,7.75457147461832,0.995176665785757,4.26910925602607,-0.100535426014444,1.37808059248788,-0.0814234549425547,8.42086598232469,0.278216307618696,4.88090642464145,-0.0122546649234983,0.317065639244236,0.0071559837539916,7.46074780876974,0.58436909879975,3.92828021513651,SIT_DOWN
0.79,0.0739609034222445,1.2544519003961,-0.273032387525843,7.92566953809089,1.54706832468819,4.52993090849101,-0.141541453236627,1.41184664976803,-0.101561420698679,8.34639991513135,0.05480404747024,5.05250298665354,0.0161136991824051,0.258386192393577,0.0330745668088259,7.5733867867035,0.584916059018727,3.85435799185689,SIT_DOWN
0.8,0.0292966761545268,1.23728563112844,-0.279871396262444,8.16512897545712,2.07990698464027,4.55795640511246,-0.12148788051113,1.39396029860473,-0.1267685914735,8.25961333843378,-0.175538774538442,5.24423453871498,0.0208015206653282,0.21359814289305,0.0400226092555676,7.70350928374459,0.503988152038193,3.90778289419195,SIT_DOWN
0.81,-0.0435311058987465,1.19283159349685,-0.279956079866407,8.30196180598508,2.52852647434775,4.5968959368622,-0.133579456350048,1.40673420353653,-0.152258211467327,8.14626502833292,-0.0111451302183102,5.14685366187354,0.0167246147285077,0.180130793938318,0.0375155610516814,7.66294040291542,0.453081621150297,3.77800918126657,SIT_DOWN
0.82,-0.105125254627678,1.201671953636,-0.280067378610591,8.39552340309531,2.87973878710022,4.57664709950335,-0.101364723146974,1.39741412798197,-0.169706488413104,7.95479378241696,-0.0343152564345688,4.7369734948487,0.0048269602125605,0.147224982678962,0.0362200172070969,7.59843751174443,0.317739938604877,3.98826591161799,SIT_DOWN
0.83,-0.148184269801735,1.24229196668862,-0.277940076395458,8.25938611133898,2.79504317207924,4.3978843968471,-0.0160301508675052,1.37638215174515,-0.15120057269668,7.81543012261443,-0.0195069700778816,5.0719503076286,-0.0058136230757278,0.130273093147113,0.0345817212627282,7.51261103723355,0.128332715327798,4.21118968993264,SIT_DOWN
0.84,-0.180367225463916,1.25289776292384,-0.282034820993581,7.90834246928388,2.2221788652895,4.55369641772606,-0.000561180026167,1.37281810881894,-0.133616738917853,7.63159493554027,0.364831030316743,4.80530962880143,-0.0048985146395225,0.102842678297337,0.0268682168165796,7.55649796281183,0.0047188947903074,4.29486046494814,SIT_DOWN
0.85,-0.205141046496847,1.30439722335497,-0.301977583511339,7.60539336854246,1.8569966733355,4.83126246264276,0.0434523712094412,1.37651783672769,-0.101641530227643,7.54278174920781,0.360796940398332,5.03860653458687,0.007446043408738,0.0793507647410544,0.0319501805032767,7.65890289710457,0.116605178648088,4.55216356068166,SIT_DOWN
0.86,-0.165319651188136,1.31845707283739,-0.308449371711786,7.49448645098872,1.39353790368404,5.38190626540707,0.0485657340994119,1.45459021424228,-0.0693130889711409,7.58279936757302,0.17810434508458,5.15825988008181,0.01800975847511,0.0707937732024812,0.0297026501207946,7.84110951457107,0.275976092442553,4.61050191125456,SIT_DOWN
0.87,-0.109198046049604,1.4032017140854,-0.320230585238331,7.52906621749693,0.953938349342271,5.2719120460745,0.0714355170146575,1.47594330921465,-0.045459511916733,7.28917691001432,-0.076202377498287,5.45772637384813,0.0187465863751761,0.0588523002349313,0.0454805758803168,8.07116333135169,0.579608428642672,4.25165317036397,SIT_DOWN
0.88,-0.0653813283104542,1.46632401472435,-0.353563263072734,7.86117898459921,0.711072645851887,5.20400283836173,0.157679042620883,1.48151921527116,-0.0213575250905189,7.41142399660548,-0.861110072499412,5.8396999775787,0.0026901856157648,0.0510955561487961,0.0498169738758715,8.26025287399951,0.863244712213455,4.41326670326146,SIT_DOWN
0.89,0.0110159884041566,1.46209999927565,-0.380582918273482,7.93119191996577,0.28291667219858,5.06104389413807,0.179905894042764,1.54559830689785,-0.0128571484222228,7.81791295259837,-0.77957855430192,6.12470880294487,-0.0131951277167027,0.0007805796241637,0.0534886599751392,8.25752499995106,0.998351743658895,4.11023459801437,SIT_DOWN
0.9,0.0634336221691995,1.39998026967004,-0.416424533892152,7.79736380341542,0.861619212471351,5.34503906684403,0.163600890783343,1.54389273801329,-0.0366009679920322,7.95849125567313,-0.618667184135809,6.11763175232156,-0.0460370086207945,-0.0489293674362264,0.0509206832412531,8.2132324572096,0.927543946815805,3.88169927287507,SIT_DOWN
0.91,0.110280543953978,1.42606546217588,-0.447134683986509,8.01332938258827,1.17792687454388,5.42744089655083,0.182205210261997,1.53849725497241,-0.0676304786500892,7.79049646217618,-0.469293756793569,5.69871705393222,-0.105250031455882,-0.0914608289228226,0.0403077026132525,7.99745024835037,0.744978557305183,3.96359451240645,SIT_DOWN
0.92,0.113874208527883,1.43870449797737,-0.451316608263685,7.93077163810088,1.30856743636962,5.83809724555296,0.244806446606242,1.52743223625087,-0.0800508297725476,7.38062383408596,-0.272222451929173,5.80428977425691,-0.129909328017265,-0.103769040949121,-0.0016766354790176,7.85022864124917,0.388567454006261,4.40274862114963,SIT_DOWN
0.93,0.053051033847595,1.37629533399318,-0.440580841604733,7.28943646238676,1.56973946466804,6.37850032361648,0.261001173188171,1.57494869707891,-0.0668481707604556,7.42273002192347,-0.139469009534919,5.49436242144719,-0.128564896184999,-0.133489558237462,-0.0388421436223457,8.07875679959501,0.0385664573567245,4.55685886457722,SIT_DOWN
0.94,-0.0678502841561803,1.32927981648041,-0.436295273316197,7.22302081169573,1.85782682221548,6.07020689771781,0.218396718367208,1.64931655983837,-0.0532345841820808,7.86433587882122,0.210072987813321,5.58752343949472,-0.124870607115362,-0.171394686593382,-0.0800941205475281,8.33785913783122,-0.278558987934122,4.44817426965402,SIT_DOWN
0.95,-0.158144228861868,1.31398345647921,-0.420922652965801,7.32713958881137,1.68729428040554,6.23674573027571,0.23810644235256,1.65733796218307,-0.033217448254473,7.64591879287365,0.460112657660731,6.00941761929202,-0.113030140428893,-0.167343252818625,-0.119366674931935,8.68058708625269,-0.359376115820071,4.58222054772895,SIT_DOWN
0.96,-0.224517566977131,1.32344500949914,-0.396232561640442,7.75311418896334,1.58786741036,6.23651418063281,0.180829795476353,1.64382155627694,0.0045977714198864,7.54455373546748,0.683336130848828,6.4136939892592,-0.0742916460489726,-0.184815536645993,-0.157248078528493,8.80149781685451,-0.096541990656842,4.61312314189953,SIT_DOWN
0.97,-0.265883644517964,1.30210330717285,-0.374386252998489,7.85174534705037,1.68724186111912,6.31759433660081,0.0325252806854228,1.6665403387987,0.0202598070780903,7.69697859275144,0.90333439439481,6.40513385588473,-0.0192217337357419,-0.206586095917554,-0.186593656567454,8.96969473745345,0.333452111481994,4.82069535635544,SIT_DOWN
0.98,-0.331640405205827,1.38909625880928,-0.35226494131957,7.94244771390463,1.31204914593407,6.31579356918054,-0.0391708565774292,1.67319870331866,0.0421229416284696,7.35247688851931,1.01582459939477,6.62326950035358,0.0238660574167725,-0.224676111924736,-0.198672415870722,9.04725318861424,0.853034626505119,4.87921641674667,SIT_DOWN
0.99,-0.37315061935703,1.43299671709304,-0.350674992968915,7.75333689858835,0.73106031462885,6.4036300193024,-0.0697336089289675,1.62094069963157,0.0865725695025182,6.88951335997174,1.09729384360962,7.1252195387368,0.0271962909674132,-0.26866989577549,-0.195356086571578,8.92063153787002,1.30120770337033,4.69355858420137,SIT_DOWN
1.0,-0.368290026704296,1.39347339973379,-0.369441837941665,7.48257310790585,0.5453026723121,6.77507669919133,-0.118170477031321,1.60697707275977,0.141275468656536,6.8941516511126,0.580820109658283,7.52479433406338,0.0143447430734283,-0.298417110219338,-0.168122032152332,8.90265505953023,1.5323467021526,4.80567051563695,SIT_DOWN
1.01,-0.305185049205929,1.34176553382957,-0.376244617756797,7.22949321995919,0.351763638247811,6.84124923888222,-0.160254012040811,1.57361477526566,0.132422774250166,6.89947012588918,-0.257215846120279,7.37961381815092,-0.0364563401628803,-0.329163870773018,-0.137230329875253,8.88418027207142,1.4383053079393,4.90735424644511,SIT_DOWN
1.02,-0.184577225723257,1.35703697371211,-0.366279361900897,6.99526693456728,0.575984269893974,6.94230451290457,-0.0869995286013576,1.53741061035064,0.0700849036723847,6.70139156195242,-0.342170642816846,7.099898424999,-0.083650400754518,-0.377360616526205,-0.114118087319074,9.11349777646728,0.905287660952402,4.9301693712879,SIT_DOWN
1.03,-0.0671979310952672,1.35852859893754,-0.363244357286165,6.79353134912258,0.943234138099812,7.19228160314296,-0.0100895989373536,1.53762813990212,0.0132131197347614,6.26871744720609,-0.157118301243129,7.19769767753552,-0.114617803045784,-0.428427783529625,-0.10972143961715,9.21506021291316,0.270264480963042,4.80126500133856,SIT_DOWN
1.04,0.0006985856109844,1.3456964361974,-0.377481421827042,6.57844179482772,1.27579043207751,7.19540001683308,0.0860063696597509,1.56422824438179,-0.0210049018324599,5.96300140880969,0.290929752375406,7.38539268286637,-0.129898889097683,-0.453839842385184,-0.118888581682104,9.37643395500323,-0.0103382445682584,4.71672041674294,SIT_DOWN
1.05,0.0020534348484729,1.30150525980645,-0.386266724604372,6.48859402496005,2.02900583484924,7.40182928891054,0.199441714300733,1.48013056869234,-0.0248640883015721,5.71483508291084,0.70344770276239,8.11210454336892,-0.104567948600118,-0.478227815572688,-0.132270842595037,9.46371753976072,0.083038215804836,4.92085907187555,SIT_DOWN
1.06,-0.0338168049603436,1.20974980970601,-0.346411354016659,6.62059468155232,2.47676781737615,7.57568971352659,0.183613341969101,1.45272081516463,-0.0448034910496688,6.02538322497704,1.32881370794006,8.07778946689891,-0.0592523142463938,-0.511044734170267,-0.141096583698489,9.46811863274329,0.45271438245055,5.04147558367541,SIT_DOWN
1.07,-0.094397246372112,1.2440603682556,-0.289992004384739,6.15434421919782,2.72178062532984,7.69761015481376,0.0961136588864,1.44316055551613,-0.0542659356961574,6.04282967609271,1.85120063014388,8.43961896744642,-0.0168738310735383,-0.569924967440209,-0.150584836354801,9.6510150111526,0.890343323074705,5.15212560429996,SIT_DOWN
1.08,-0.189581564031327,1.25802866919203,-0.262420406118253,6.18556650976953,2.31231067569131,7.5938834438698,-0.041302579408247,1.45112370088519,-0.0435565635080037,6.09708964949364,1.76878715352402,8.52462993521251,0.0049307816649967,-0.615202325357009,-0.136826443648022,9.78789057222954,1.18029527202627,4.92867803748184,SIT_DOWN
1.09,-0.231131930581812,1.23946633016766,-0.252390019187251,6.24982985058851,1.7867638160872,7.73054004222127,-0.145634688432568,1.39762594665396,-0.0253610859148479,5.97218446337094,1.3372945734201,8.66769572473694,0.0125350612233474,-0.670610800373752,-0.123317175028167,9.83464648287119,1.32304059924755,4.88020777141767,SIT_DOWN
1.1,-0.200174175859531,1.22686559134705,-0.25006170906902,6.29739652512522,1.16530095242641,7.66680212810721,-0.193804660358953,1.34287671419201,-0.0204151840618705,5.79207426172298,0.817529336405638,8.69778526345724,0.0027012200887567,-0.714638244969546,-0.0933922640172146,9.55565704159763,1.23280005934428,4.63856122439392,SIT_DOWN
1.11,-0.0639872825980802,1.18658642421528,-0.254422249061108,6.20265383230452,1.07221266351032,7.897504782331,-0.191315484404037,1.2829136487231,-0.0419360382113156,5.41632527201132,0.38919921425508,8.68892722182934,-0.0120051023123965,-0.752396225830571,-0.0680993631386754,9.4567346132194,1.03008915679314,4.62698422000315,SIT_DOWN
1.12,0.0237851319396431,1.18912587274522,-0.255012335880509,6.16489975695158,1.04005873910298,8.25920607978935,-0.138737653336718,1.23741873494895,-0.0783984644972089,5.2213654823121,-0.0028465302705943,8.49128577756753,-0.0430700463313329,-0.781248100380701,-0.0513432711101254,9.59167558711362,0.794092535048658,4.94764394530659,SIT_DOWN
1.13,-0.0041374915259053,1.14147344521978,-0.244568667845152,5.94914022713936,1.56307082958693,8.65435567460756,-0.0376794423184956,1.2311055922372,-0.0764898512648119,5.62320451324502,0.114064353380765,8.22268383931221,-0.0418896362355713,-0.820114430231532,-0.0497294877506775,9.8576586319895,0.646705588661386,5.00622253193852,SIT_DOWN
1.14,-0.0420522464828425,1.08339362779225,-0.206171988221232,6.39197431190162,1.98371518477325,8.39814237069877,0.0393474770723404,1.22026845096248,-0.053852290975296,5.72461475896711,0.749169323532807,8.48045534905503,-0.0035209611868066,-0.862457872571432,-0.075748130592338,10.2065232159853,0.478525967615812,4.92151863405923,SIT_DOWN
1.15,0.0227948434330662,1.07299935647754,-0.151688730947735,6.68100829817599,1.83407045898078,8.24406837098457,0.0094216851659747,1.19520961737338,-0.0385124597947297,5.93721807167886,1.31675753184505,8.51328628046321,0.0398750190649257,-0.878684699881048,-0.11172345708752,10.5017029314516,0.579716495050527,4.87907747355355,SIT_DOWN
1.16,0.0912513506801499,1.0571605057464,-0.11997632745577,6.73971370015411,2.12122247291229,8.00667083908647,-0.1610608202862,1.21300070517361,-0.0599085331545999,5.91017808141811,1.45036240312779,9.02703658794579,0.0763110971914911,-0.878809649531836,-0.146991567803862,10.6036558940859,0.598338214987531,5.08217606172418,SIT_DOWN
1.17,0.106923869035788,1.08080776825407,-0.0913567213527203,6.85694579507342,2.19889954318384,8.05709150358021,-0.290654443253537,1.20680415359146,-0.0741344389969265,6.00532589801609,1.53159814898973,9.13489896868308,0.0994164035200846,-0.879138821968967,-0.148885652776602,10.774667863846,0.680406653778142,5.11795740116345,SIT_DOWN
1.18,0.0754175525591393,1.07993242628686,-0.0921706559388208,6.67928955633081,2.02923181357205,8.45584854180355,-0.413140484679774,1.19243245344852,-0.0664576841856265,6.00845298986298,1.25292332462714,9.40349649942257,0.114379791575932,-0.906727719376488,-0.123271337880808,10.9291167807904,0.78806630250614,5.10466103142832,SIT_DOWN
1.19,0.008146055483866,1.11493215188403,-0.10001923828902,6.33371931905663,1.95696006527102,8.76755358390019,-0.529595825963507,1.20736474832959,-0.0617621252315157,5.82317501016659,1.05272105576634,9.36934445942,0.114741999468905,-0.911679732020921,-0.0898986101801163,11.2160181844021,0.880538515472691,5.18436533396703,SIT_DOWN
1.2,-0.0101828707933563,1.20462438099518,-0.0899392035195229,6.04543502539726,2.08912276178923,8.82833944335555,-0.592765786483551,1.16718462304684,-0.0109063670838948,5.01718929371759,0.834249953404452,9.60162567378827,0.115384721021888,-0.931371558570361,-0.0593488432744126,11.456687007146,0.695625146406331,5.02939256048295,SIT_DOWN
1.21,0.0501145454168943,1.30306073950768,-0.0797059512921391,5.48567159588064,2.37963717153043,9.32238271504719,-0.572843970374606,1.0777232778856,0.0203770727441861,4.27244852168593,0.627898188979409,9.53230719478222,0.116364952795634,-0.950600158444642,-0.0355174483584959,11.6989274316842,0.633356336607206,4.7502665243028,SIT_DOWN
1.22,0.137845996336169,1.22327081549242,-0.0784118195073279,4.79538526149401,2.83648466125432,9.24605216112066,-0.575607769917663,1.03725812588386,0.0211748220013971,3.96793282337097,0.356725080656946,9.54938504375305,0.134826471526565,-0.983754784249184,-0.0149000207244949,11.6383169843134,0.59014888997359,4.30343868426964,SIT
1.23,0.091449330240569,1.10286124307145,-0.0814442707059737,4.38765507072255,2.79162542697167,9.15450334963275,-0.52728958567865,1.00989586458457,0.0352568114946923,3.32309638012975,0.395827581765233,9.95636171031045,0.16040964450617,-1.00896995337478,0.005972022909444,11.2398212124731,0.643494730299643,3.53841519423017,SIT
1.24,0.0733012496949254,0.884180250176934,-0.0424114282669191,4.18615429956901,2.98326184757591,8.96240226798654,-0.493961312911126,0.912243990985408,0.0764747983194583,3.50821451776009,0.591368477942692,10.130639867614,0.196944519645575,-1.00892867599713,0.0196923031665729,10.9779670641705,0.775369460666498,2.50827811074752,SIT
1.25,0.0411565559080076,0.854669686692902,0.0379403105233053,4.35595100985828,2.68631939210575,8.6267479839985,-0.574120748248441,0.851558718686825,0.114449413464776,3.74945625020311,0.309443784083614,9.84346662620578,0.258603774222051,-0.991339420223028,0.0436783435787762,10.7409436409553,1.02958125012742,1.93119759907564,SIT
1.26,-0.0729588966376486,0.854036214980127,0.117467450336485,4.36157874044763,2.37249733552422,8.88335098198067,-0.588164934126131,0.729387050226477,0.127476519407299,3.89647255224508,0.293799406812913,9.77741455143049,0.267330466415952,-0.965608834392614,0.0687536929461465,10.6272807068905,1.22201866555957,1.63005808997785,SIT
1.27,-0.118312757339447,0.825449233689892,0.149837410411746,3.98484819419877,1.78018436671766,8.90951233021198,-0.572692317151965,0.70921521130821,0.18398031524437,4.27276230917013,-0.124352556759639,9.2121919801167,0.252261618609817,-0.956630087853075,0.0976617334196065,10.4517745865528,1.22061548829332,1.33660131425421,SIT
1.28,-0.122556089601915,0.794878690773082,0.145606173617146,3.62397996472877,1.05371827277435,8.9156505750302,-0.506117187832543,0.699921773882662,0.249642329899578,4.15233279311255,-0.0585359880048233,9.18249031110628,0.182179984851712,-0.944877612203505,0.112750907379234,10.4595744461762,1.27685794680229,1.56476983797592,SIT
1.29,-0.0854052303447292,0.702571639438707,0.102042110463737,3.60366065249915,0.441197129020453,9.0901519395286,-0.340161693085728,0.674431611269432,0.295154591335426,3.46159104841158,0.142415185373318,9.00615228124418,0.126161074994661,-0.957655355510862,0.103165938222961,10.4998694225817,1.19864903602717,1.68824980895388,SIT
1.3,-0.0864553732888219,0.665988207162479,0.0385832844793922,4.16242041220688,0.684449298136845,8.92018734083766,-0.132098243765382,0.643803899948215,0.333210474643688,2.98388335999276,-0.359646191682965,8.75140711165169,0.071576715577376,-0.971939743111631,0.0930127236874938,10.64562808777,1.10537390822524,1.54975696778577,SIT
1.31,-0.0428672974789661,0.652217454557763,0.0178268154072441,4.37319534477326,0.75169331022683,9.2913549715804,-0.068817263579732,0.620922183719449,0.262260130673611,2.30149050975613,-0.164017771656009,9.71574722904357,0.0499322940811246,-0.96996872553703,0.0815437845694595,10.7693165966524,0.972577838756871,1.28481686183941,SIT
1.32,0.0218655477855436,0.583024100833871,0.0370214199276192,4.06319003518169,1.36894617209949,9.52270686267284,-0.255996660673726,0.549361652081277,0.199204635715572,2.75301152396182,-0.98756921337311,9.97064941712609,0.0813245913084646,-0.976112094889736,0.0675775634426237,10.5883908966369,0.810018761830498,0.876736764711204,SIT
1.33,0.0101854149286608,0.547951617822768,0.0835146154435453,3.46072318648304,1.81526265569551,9.55247142404493,-0.312469506999374,0.473574903621852,0.15533374905656,2.61221362207048,-0.93660331932714,9.58122217751043,0.105098095840816,-0.973716975959372,0.0598543308810667,10.4201368891062,0.76771095257656,0.657323280517601,SIT
1.34,-0.046435887430418,0.455583464580409,0.132013889414328,2.94779389390449,1.50490554953536,9.5825469889095,-0.276831831131926,0.369781979973679,0.124270724993867,2.60123408018924,-0.854539900330003,9.74686992336878,0.127469903268515,-0.979270442367113,0.0583706385410368,10.2725924942724,0.68203118190768,0.343981519513868,SIT
1.35,-0.0913651084724549,0.367721119447316,0.147874462111947,2.78340150269281,0.984992494087248,9.44933349250742,-0.294784209505763,0.347942928854342,0.0838603136548468,2.43765229231633,-0.741798721523239,9.84882307235136,0.148212744676685,-0.971797871938915,0.0515378404578559,10.217144004155,0.687714852521995,0.285257449306497,SIT
1.36,-0.0934358942279609,0.319235513042513,0.161500507690413,3.05072720882892,0.685540888882139,8.91652311976965,-0.261754529703537,0.318996108506267,0.0222201060943666,2.32768633496131,-0.701953373660507,9.69239670620066,0.17258372006591,-0.970526795836603,0.0487021999221427,10.2494800760832,0.92646358915873,0.0934163054587026,SIT
1.37,-0.0310631022929983,0.355778233447807,0.171103052237625,3.16314549299895,1.00249107540268,8.61794373185166,-0.242634160308833,0.29010795787164,-0.0138416817902277,2.26925895513284,-0.698588275730113,9.66065804308297,0.182315417675913,-0.954726368597805,0.0459881387254216,10.3442236657468,1.200122517147,-0.0765563194577959,SIT
1.38,0.0365001015803926,0.395938189932456,0.169956589482969,3.01905355999476,1.40836297217517,8.87391656114743,-0.209113426339167,0.296245516492934,-0.0454057260473637,2.27334174457249,-0.489055376117906,9.4446231654809,0.178871796818466,-0.914908686023968,0.0429175724537252,10.4449685877753,1.47905464949168,-0.0885361584618814,SIT
1.39,0.0562956086947149,0.376755949011258,0.149186043250379,2.93740572326273,1.44141460266006,9.24530694340789,-0.230343834893495,0.319949863965813,-0.0703562809997762,2.14377994999036,-0.356508332144971,9.30561734232601,0.166328657198164,-0.887123855319275,0.0542252353936105,10.4560963120865,1.61117344198171,-0.111601240311935,SIT
1.4,0.0710798070744202,0.345570936819806,0.114925980187054,2.86083036872214,1.20514996339183,9.3505025968473,-0.259383683598307,0.311107466742914,-0.0854678012164582,2.06323990864606,-0.417633239183631,9.28859860325407,0.142080734051872,-0.870053395414443,0.0583526980968356,10.4789743049309,1.75688326145512,-0.307796277727102,SIT
1.41,0.113340047947264,0.309544906939252,0.088285158001671,2.50868320652018,1.00144340103087,9.31887772903606,-0.279379077491447,0.299973561548149,-0.0981961355772278,2.0637785560608,-0.673445593740409,9.27167437350208,0.0947484413781084,-0.8389358052452,0.073650440735908,10.5232860651277,1.81190615565718,-0.54155350179697,SIT
1.42,0.20877251804911,0.276919586583914,0.053995276811837,2.16282589234109,1.0364821747454,9.26878509217594,-0.291902758829969,0.28189190779838,-0.103748271283316,2.30670604832099,-0.830043804064689,9.37052618539881,0.055200308963418,-0.760534243038266,0.0777875110611511,10.4184303657934,1.7121381536423,-0.552935315252676,SIT
1.43,0.28486439860271,0.283928909994121,0.0188514009603186,2.14361655157824,1.06652773854123,9.23924794942439,-0.303931986871988,0.214414628958123,-0.0937351780189557,2.05392512682312,-1.11863157702917,9.50961766982082,0.0248854596056857,-0.72236753694919,0.0723388854714371,10.2306268773403,1.43336018999505,-0.558284749928195,SIT
1.44,0.344909118775192,0.283988249288544,-0.0117708229295006,2.13638016596051,1.22816552881515,9.4036385888396,-0.331100175864242,0.190156029737545,-0.0783601673976229,1.75929853100752,-1.25944968712692,9.49013813097922,0.0137387800514035,-0.704551998717372,0.0686620850731237,10.1830306577473,1.30159229844752,-0.689920485817956,SIT
1.45,0.391820594956896,0.258266984354827,-0.0371952380174151,2.18299287745603,1.49325658081795,9.49114284154773,-0.288623681003069,0.161760912509204,-0.0641323812993503,1.82131417417834,-1.43153599598964,9.46380088889667,-0.0137735222108162,-0.673427315602601,0.0537004449391319,10.1452485074794,1.10114725703453,-0.687545193083499,SIT
1.46,0.40505761695696,0.239452791247625,-0.0488661427285985,2.30399812191025,1.90666537925165,9.42550788525044,-0.24511806738081,0.137331190724165,-0.0371190282537175,2.20783512755692,-1.71519736206577,9.34351664973327,-0.0365483703632559,-0.649409541376685,0.0480606207054031,10.1129774343517,0.982096003292054,-0.620976734644638,SIT
1.47,0.410260732314826,0.248702788760824,-0.0496392341218226,2.20804932983775,2.25604928474962,9.31614527368063,-0.2153296347117,0.166834348401286,-0.0151280220192714,1.79086243401626,-2.25069225623576,9.55715069742372,-0.0433789674454033,-0.640412923585245,0.0429285858139434,10.269036841298,0.946163581442281,-0.796246625088576,SIT
1.48,0.414650017709421,0.235859430191349,-0.0438939793820817,2.38400847011496,2.51997335650667,9.07838746919935,-0.158782341495306,0.167908506017689,-0.0334947219416321,2.27308212450221,-2.18862114670202,9.46497798529595,-0.0327125900777555,-0.631406895403029,0.0464327274668199,10.3253439243844,0.889637565236732,-0.817881530548049,SIT
1.49,0.401707233830992,0.210816340124388,-0.0539455082011788,2.44763702200854,2.70516069075229,8.9427734207774,-0.0871619413481181,0.17699982817732,-0.0604564845762566,2.24186298173308,-2.04923607713729,9.64366368980546,-0.0268541772081561,-0.600453227301159,0.0364572754822825,10.3870104452737,0.798081127301775,-0.865313728364613,SIT
1.5,0.364992472107607,0.182162359919339,-0.0793961116383429,2.70855935423656,2.65028473951895,8.92255088671701,-0.0773785232766515,0.179720180615494,-0.0969976717010662,2.10470156526715,-1.847004284364,9.36831224636827,-0.0268541772081561,-0.600453227301159,0.0364572754822825,10.3870104452737,0.798081127301775,-0.865313728364613,SIT
1.51,0.341417816559575,0.174526822737921,-0.105472979324266,3.07384651059342,2.53031589220183,8.69649950512949,-0.0400119860238115,0.183136898272898,-0.117295063047807,1.69344458730178,-1.56139987650007,9.33165083383868,-0.0268541772081561,-0.600453227301159,0.0364572754822825,10.3870104452737,0.798081127301775,-0.865313728364613,SIT
1.52,0.359843151986448,0.207395060522845,-0.136069778295428,2.84703769011948,2.67508961152838,8.6361379603061,0.017210007720363,0.146719363166137,-0.137654210495685,1.60756173786871,-1.30711817096462,9.55347812911932,0.0244188465154853,-0.548369698464659,0.0372933123963601,10.4294260793732,0.669704923197733,-0.900248168333424,SIT
1.53,0.391206173351971,0.169519515231723,-0.151087875136309,2.67822626904637,2.36946469910299,8.94853997046324,0.0744024098597634,0.0993252727641311,-0.153284366640396,1.97104208448443,-0.984138956514753,9.58624202372742,0.0754003954492616,-0.518445569577262,0.0571371547857264,10.3975102749944,0.66475107863886,-0.915951030993089,SIT
1.54,0.432964464837368,0.115409539895186,-0.150687183631332,2.84003999988383,2.49669145633244,9.16471095759378,0.0870911089937327,0.0657641732363158,-0.153649762423743,2.34929283376519,-0.883299843978135,9.48310800810846,0.0939802555838516,-0.504538869102034,0.0789044709358793,10.351707400869,0.632518131051799,-0.793418870809551,SIT
1.55,0.472469730017142,0.0937137761645474,-0.124755001483854,2.87357747109965,2.76620364297788,9.19142983156956,0.0692971015685507,0.0584591939156121,-0.139087680280639,2.57688388676011,-0.828266020731652,9.47257550014904,0.107064986679964,-0.483284427411727,0.0971924844547942,10.3843753125334,0.693309383959083,-0.766386795763404,SIT
1.56,0.461707296124366,0.068050820779427,-0.0804986321025249,2.89294250656601,2.94767038712458,9.10480672686794,0.0624934238459297,0.0392565847017733,-0.108634737823061,2.55957529516604,-0.644348424224338,9.553886773981,0.113780442605871,-0.473673883099675,0.127802157692376,10.4380214317936,0.771517549858408,-0.7580653344145,SIT
1.57,0.451067994478963,0.0545637690876086,-0.0274869318561454,2.85570038027106,3.05975460988959,9.06315678941411,0.0693529950364086,0.0134709978093349,-0.0741660705512722,2.56945186053723,-0.43439736729783,9.58748551194684,0.089670172854768,-0.455416327117001,0.151258535591379,10.3292742551621,0.791560729478174,-0.758597053048242,SIT
1.58,0.424971652949286,0.0542823964034161,0.0256029717158917,2.76476944780135,3.10872187134427,8.98022900797517,0.0584820246977602,0.0105268904803121,-0.0443623992929048,2.44804444683029,-0.463555320479007,9.60273816249797,0.068867775422597,-0.417035315105705,0.150756207440103,10.3449613502554,0.774848092345393,-0.995671864858558,SIT
1.59,0.368396483676716,0.0718937842716067,0.0709367569872506,2.72283469096,3.14697831038371,9.01575139240314,0.0215997611172103,0.0089262010536357,-0.009802450202656,2.31799631330638,-0.571321653824814,9.51919295957042,0.068867775422597,-0.417035315105705,0.150756207440103,10.3449613502554,0.774848092345393,-0.995671864858558,SIT
1.6,0.307248220350383,0.0960927011639797,0.0991298185224476,2.86074055786941,3.31639778732568,8.99495969891126,-0.0061936443861339,0.018094958504162,0.0187174120638011,2.49943745849564,-0.852803371071911,9.63125632882441,0.0696034190896689,-0.354509164288546,0.145124742188094,10.3576956071209,0.624747425834083,-0.718137489088238,SIT
1.61,0.258028521737741,0.100605850433318,0.0858244897461849,3.22884389144769,3.36275028651534,8.91799509213035,0.0014542368053021,-0.0021073131371971,0.0369621613606957,2.72830789114877,-0.919103363193164,9.53691368463853,0.0580990791040895,-0.31006768155412,0.130043113359241,10.3545478555265,0.425277969364392,-0.532668472229235,SIT
1.62,0.231084679299432,0.0973214853294102,0.059569195933008,3.3692353454428,3.44363229068405,8.79450481407897,0.0014542368053021,-0.0021073131371971,0.0369621613606957,2.72830789114877,-0.919103363193164,9.53691368463853,0.0547396285415697,-0.286565625457013,0.117111941967928,10.2486178497438,0.386693007150865,-0.279622249680351,SIT
1.63,0.203703171865962,0.0901286392998827,0.0279032731447699,3.26122504062396,3.34681668917412,8.73129707998726,0.0485102360134412,-0.0290242065433581,0.03932048386958,2.69729461445508,-0.900564324966811,9.47807394818003,0.0529799507941578,-0.28837757071016,0.108807677089405,10.0676588408942,0.411013256469256,-0.273635852916982,SIT
1.64,0.169110139940093,0.0616842182465188,0.0029673836249854,3.26237173411619,3.22445232249994,8.76116249891257,0.055372538196391,-0.0440203509292154,0.0301370254579983,2.69398646239938,-0.852706125780269,9.3719779604746,0.0529535558976596,-0.294458722527847,0.0987489192178737,10.0422813872719,0.391214395218618,-0.336061968460992,SIT
1.65,0.161059710725341,0.0394115720131532,-0.0213222358515738,3.30847668382601,3.18239728881927,8.83172707733963,0.0432101330344229,-0.0467557773056466,0.0210914172431068,2.58172140822696,-0.69989713507995,9.31592988712466,0.0640473741912203,-0.284022627939503,0.0976593113951068,10.0887602403518,0.359571389822844,-0.486164096996957,SIT
1.66,0.130389082251133,0.0063536363134563,-0.0261080830600928,3.3095458545641,3.1117140170166,8.90520456377542,0.0250168497322871,-0.0417422482555238,-0.0002353967298943,2.54223686116235,-0.606864387710265,9.30429059879477,0.0479441772514342,-0.288641452036583,0.0970044591997251,10.0981240441537,0.339434541125912,-0.775516375230815,SIT
1.67,0.129452234608676,0.0212973317818217,-0.0233548398821034,3.3627975332579,3.07186487655385,8.88823074483554,-0.0121801235192964,-0.032630402641233,-0.011569847596429,2.73429911782033,-0.645839602234469,9.37111791284642,0.0070220180415755,-0.267698427570981,0.10037200441912,10.1254592320273,0.366096975088396,-1.00096991721922,SIT
1.68,0.129452234608676,0.0212973317818217,-0.0233548398821034,3.3627975332579,3.07186487655385,8.88823074483554,-0.0169953470699622,-0.0364257160481658,-0.0191823711105709,2.93756269776557,-0.53833944885796,9.4138061444881,-0.0039589980169117,-0.204757924774599,0.105946821035032,10.1134407554316,0.408092579781495,-1.01354496817486,SIT
1.69,0.126052585335953,0.0265364380129448,-0.0170132327648127,3.31309047331348,3.08051866408812,9.10655978289404,-0.0018726520609631,-0.0483431684004065,-0.0142345455666137,3.07905605174709,-0.410617999263386,9.59809124195157,-0.0034469559054822,-0.156262109252101,0.098867256658812,10.0960118142866,0.39489873277818,-0.560550678533496,SIT
1.7,0.108752832834461,0.0165492816419619,-0.0082699745410251,3.29662677076434,3.13959835138594,9.12555489424132,0.0021076542154532,-0.0291429137108247,0.00500014335621,3.19489284897382,-0.396124660034094,9.53926707923458,-0.0024227392711319,-0.142516844370657,0.087172563673334,10.1270052497364,0.33760978385528,-0.275134053347301,SIT
1.71,0.0830291481237869,0.0045743306308267,0.0051941684243975,3.22663630483736,3.19383499746409,9.06038743254994,0.0201455375002867,-0.0224323583302871,0.0363536170622375,3.26007464736196,-0.321797279917235,9.62723278074182,0.0167407458625534,-0.129103495373788,0.0728731554190418,10.1951596850333,0.335522981199403,-0.362636670251346,SIT
1.72,0.0414011328577128,-0.0132791167106478,0.0129100125669581,3.25594618547837,3.04828800087071,8.91710640003163,0.0291098357273809,-0.0311678705447708,0.0587332589477796,3.25575975729204,-0.277207733831688,9.52083572021988,0.0485738005538053,-0.120283083267861,0.0510063523900344,10.2109661433206,0.340079303179847,-0.46470917409776,SIT
1.73,0.0091162937907015,-0.0041485165176687,0.0221384929246159,3.2634546135785,3.02697831780353,8.80673640746803,0.0260690299058846,-0.020633231895543,0.0706209754426236,3.18287982086655,-0.377702213609201,9.30807141498251,0.0635473023938646,-0.102191952641655,0.0349425820732718,10.1954603177411,0.351947808295211,-0.303350188043049,SIT
1.74,-0.0225313730292691,-0.00806394356136,0.0239528766728703,3.35428852863084,2.879235776141,8.85894876158012,0.0169935338461402,-0.0023510592825873,0.0702304231027962,3.10829928557952,-0.438463729966231,9.27059881108604,0.0635473023938646,-0.102191952641655,0.0349425820732718,10.1954603177411,0.351947808295211,-0.303350188043049,SIT
1.75,-0.0268932775862192,-0.0182487779561564,0.0281085398200122,3.47185296827796,2.71553822809221,8.98670918057477,0.0032984067925719,-0.0115883048953009,0.0560011443482417,2.98468375496099,-0.433711975101784,9.3201847097375,0.0615445813885129,-0.0945925699718958,0.0287218769842975,10.0653968064449,0.400231436734648,-0.243628099974655,SIT
1.76,-0.0275843695826361,-0.0025903199947027,0.0226341948148597,3.56778083468603,2.71257506850605,8.88327732800962,-0.0268397433082175,-0.0254157506140111,0.0395619879391188,2.99339907495521,-0.514052547295159,9.19096377431459,0.0825999038300609,-0.0994794839336377,0.0358891305569309,9.95049913342622,0.482676012745418,-0.223558953741191,SIT
1.77,-0.0326917026829168,0.0202389299827147,0.0213537044579019,3.54667148697031,2.667262299536,8.96286591097042,-0.0375011957623793,-0.0353559481221293,0.0215885641413579,2.88824425262264,-0.52068575325181,9.26897728939254,0.0885942779178694,-0.0899663430788531,0.0539830680165842,9.94346326824817,0.511587854513114,-0.237275391851058,SIT
1.78,-0.0418612163119456,0.0237377564883434,0.0247427102492481,3.45512277281867,2.72156938855606,9.07815149706883,-0.0269797645261129,-0.0586297739871661,0.0010409190969801,2.83899468047379,-0.481801087771611,9.45209905656052,0.0773930941806724,-0.0980551295222463,0.0698272797116273,9.90323244522283,0.512212445929904,-0.420008539050524,SIT
1.79,-0.0657847771344251,0.0044030683111699,0.0416755534780874,3.30828930752437,2.7683334506693,9.25158368745606,-0.035492335601788,-0.0439452451884978,-0.0089436929323276,2.83641258297564,-0.621608772378993,9.49572305015742,0.0871981850749837,-0.0794913507552573,0.0857236324614238,9.88219574840052,0.530369172767852,-0.623158542465653,SIT
1.8,-0.1022786478343,-0.0035326938858843,0.0554384707243036,3.2983829395599,2.83804639875991,9.20961448928929,-0.0632314897258047,-0.0133115387809424,-0.0068871118177043,2.96250183983639,-0.812743688675043,9.59532905772895,0.0979699668137529,-0.0580306138894359,0.089989316571432,9.87331017525218,0.550267590872674,-0.668575717494152,SIT
1.81,-0.124585521220332,-0.0133081821801172,0.0886396394946483,3.17554678786985,2.92621347355392,8.96670564749012,-0.0440897434597169,-0.0197317015036691,0.0030701194409151,3.16609689945772,-0.818328347868592,9.66577161276121,0.0848529404192908,-0.0385584108006244,0.0909846916326649,9.81956784053474,0.566702193152383,-0.360246860326658,SIT
1.82,-0.13186657165036,-0.0094234194737128,0.10882412200945,3.18058185162182,2.94587500410674,8.70711255475673,-0.0204193681937129,-0.0263244228288562,0.0123711716439251,3.19258915133649,-0.680256943300655,9.53006452259811,0.0885793057300097,-0.007594941666772,0.0793178300166922,9.79377215041127,0.621836925122932,-0.526807377877259,SIT
1.83,-0.123460376876321,-0.0128026228363788,0.129880426616462,3.14894120529742,2.82424142527738,8.75750338934558,-0.0051914865593575,-0.0242937830344402,0.017620336205401,3.03202235888258,-0.608299448627692,9.35586356331815,0.0917138508918706,-0.0133153427117959,0.0767525854713061,9.77521665331196,0.570961050902416,-0.556525186929301,SIT
1.84,-0.127357711505214,-0.0036812939624864,0.126847894049398,3.16752620874729,2.59117996356407,8.78399174981465,-0.009060375095394,-0.0316785430185013,0.0106613985636451,2.88290125803316,-0.568592768667282,9.3085109726499,0.0919528129974579,-0.0144890239592856,0.0644378121965574,9.75564422871026,0.567991593544178,-0.48805685295417,SIT
1.85,-0.126765207001669,0.0111576384705609,0.102617198439968,3.19483311831584,2.36395369362042,8.83154956282781,-0.0227092155149321,-0.0289974627559345,0.0006920568507758,2.80684537193537,-0.588503758869992,9.30512824492499,0.0873549150151476,-0.0361998257062424,0.045901398420954,9.71674515890214,0.4749443994022,-0.267714502633274,SIT
1.86,-0.103651124165371,0.0406817648343622,0.0668848658557802,3.18093091014071,2.22876998528302,8.9023780266017,-0.0385004535467357,-0.0231634661153489,-0.0107877812804271,2.70905706426334,-0.658430653366697,9.13584774055606,0.070875573238815,-0.0388921564325757,0.0246277737152076,9.65804384773058,0.437664627692354,-0.1590418376598,SIT
1.87,-0.0679320447472749,0.0539142421504232,0.0299544659488344,3.01485765735029,2.18045778496615,8.96986845689314,-0.0458179225877638,-0.0161539301063844,-0.010060105327978,2.70058287845637,-0.750482832771932,9.15524729680723,0.0638725688749592,-0.0503343442328221,0.000541735761668,9.62635580481039,0.389534510603675,-0.347386482190275,SIT
1.88,-0.0336647671948442,0.0578525767108973,-0.0013854950493958,2.93703059386506,2.13211739352916,9.02072135864342,-0.0507130915752579,-0.000218057225217,-0.0093690205500854,2.84526412696342,-0.77121593322093,9.27381252996176,0.0760746895919634,-0.0716485544476216,-0.0063517102493673,9.46296755346197,0.415173863776602,-0.451902020841645,SIT
1.89,0.0008195913961007,0.0647008831594481,-0.0236915959857251,2.91451825505418,2.1785693601805,8.99070839079186,-0.0571164710276636,0.00882187703995,0.0079816015783344,2.98363507825016,-0.649229875696305,9.45888617517952,0.0803558632188953,-0.0767072912414292,-0.0151856581892009,9.44286435799048,0.420568185491211,-0.388867724533438,SIT
1.9,0.0240259836081286,0.0888752469374189,-0.0336141558552151,3.00297377867938,2.20834207999063,8.96543739528869,-0.0619010153379989,0.0105736585438652,0.0243855311425404,2.98621860563359,-0.489650413210784,9.5677485241118,0.0697903444593532,-0.0895521371002741,-0.0142046029452063,9.48049317180873,0.531262545264022,-0.292247570977483,SIT
1.91,0.0392750704768155,0.120230706035246,-0.041856581245799,3.12795632487407,2.23088995587872,9.0917787777362,-0.0577581699696564,0.0198164293692622,0.0435137328759719,3.0625068917592,-0.356335755906167,9.42366094429417,0.0630312798849202,-0.0936215861757121,-0.0110397792253545,9.6028502355155,0.660656029675481,-0.326724201373446,SIT
1.92,0.0467960449880013,0.0995038838389421,-0.0356954237585085,3.17444368609419,2.32279312788597,9.21094846529593,-0.0595811722339921,0.0448646694722929,0.04863562921333,2.99874870904815,-0.485107047271764,9.36008832809552,0.0485161209271248,-0.0936905858112173,0.002081739628494,9.67073136344819,0.789743834897823,-0.410702676229508,SIT
1.93,0.0466230012450116,0.0664288602113578,-0.0082530001838436,3.20395670072543,2.45506690940341,9.08973718870661,-0.0791372674137419,0.0435183922875375,0.027253254399642,2.97923817597635,-0.7658247482449,9.46094895994618,0.0346328476080966,-0.0629422134302687,0.0051762742837258,9.71802989135266,0.896298089742151,-0.492245436128897,SIT
1.94,0.0466457215918181,0.0438630691195474,0.0196772396513335,3.20974941086015,2.62811397405491,8.91388470611164,-0.0919996059255906,0.0055234720998358,-0.0158476359861313,3.02548829642232,-0.831466395507983,9.32505276683108,0.0045098170315318,-0.0074656282808696,0.0009585808189738,9.79280555532494,0.892599445838777,-0.503551932409773,SIT
1.95,0.0355826943022326,0.0370133312094875,0.0322501303867517,3.24525452368657,2.71089582639935,8.84592193542208,-0.0919996059255906,0.0055234720998358,-0.0158476359861313,3.02548829642232,-0.831466395507983,9.32505276683108,-0.0215129917773375,0.0183160764146584,-0.0067796040744705,9.84184051240916,0.782424714365137,-0.473244671496495,SIT
1.96,0.0220261975502927,0.0280346702945386,0.0398348676746285,3.30622937396564,2.74990264487706,8.77717627863285,-0.0751295728332702,0.0109354053424294,-0.0471046292498146,3.104621009821,-0.806229677755896,9.20845449514961,-0.0314647426701544,0.0308889499363327,-0.0058982001239725,9.84097002495027,0.658689379406181,-0.470663387094093,SIT
1.97,0.0052272961829931,0.0397510883967897,0.0412251665946819,3.26933442351614,2.70134153645542,8.78006696216931,-0.0419655836156999,0.018421447922067,-0.0583567645589577,3.11231139348024,-0.788077801189131,9.25121614816332,-0.0360227366816943,0.0285214331493957,-0.0047035116614485,9.90582312492356,0.534271297579305,-0.297124320758675,SIT
1.98,-0.013586608616984,0.0582355910597261,0.030020556561962,3.26677224564853,2.64202032935708,8.8806380053231,-0.0177047982226366,0.0282210184632344,-0.0641645896602788,3.15200588381585,-0.777834873287792,9.29344091072395,-0.0342543147525044,0.0135724454972705,-0.0059966464307303,9.97981499638988,0.529591365991002,-0.316355383520137,SIT
1.99,-0.0156391556917146,0.0774283501411638,0.0132057851122762,3.26201647691793,2.58221221611709,8.98208733804788,0.0120145006273185,0.0278140123331584,-0.0502465720517772,3.10182965826989,-0.703915138897126,9.32258431640607,-0.0093852201474941,-0.0023617462911542,-0.0074499394155941,9.92791206790727,0.463888446426951,-0.477766455789938,SIT
2.0,-0.0156391556917146,0.0774283501411638,0.0132057851122762,3.26201647691793,2.58221221611709,8.98208733804788,0.0177215165646029,0.0237641842855056,-0.0341901934897356,3.01887920480144,-0.618084948601526,9.35278252065631,-0.0093852201474941,-0.0023617462911542,-0.0074499394155941,9.92791206790727,0.463888446426951,-0.477766455789938,SIT
2.01,-0.0156391556917146,0.0774283501411638,0.0132057851122762,3.26201647691793,2.58221221611709,8.98208733804788,0.0177215165646029,0.0237641842855056,-0.0341901934897356,3.01887920480144,-0.618084948601526,9.35278252065631,-0.0093852201474941,-0.0023617462911542,-0.0074499394155941,9.92791206790727,0.463888446426951,-0.477766455789938,SIT
2.02,0.0061334082440626,0.0964462081557828,-0.0167874965806087,3.27736282936868,2.52715883261298,9.02944596540052,0.0004183226470176,0.0251984522136272,-0.0060959056951893,3.07987851966876,-0.571443103347187,9.48520467622877,0.0377238459513658,-0.0120277070516913,-0.003966019627685,9.90581889039618,0.464753376198752,-0.582633570383769,SIT
2.03,0.0319670935443936,0.112155510912398,-0.0430062360156769,3.24088462192884,2.53251235045097,9.0020407603698,-0.0275974583509191,0.0285804555822144,0.0111519413664528,2.93132486024739,-0.728663093310039,9.42715989129162,0.0672258050166606,-0.0057284469441902,0.0041922659438006,9.89255835639529,0.48376197720436,-0.55133986403227,SIT
2.04,0.0432788699747736,0.109817112447487,-0.0550683078987334,3.19484864641058,2.57411451011211,8.98400109758997,-0.0275974583509191,0.0285804555822144,0.0111519413664528,2.93132486024739,-0.728663093310039,9.42715989129162,0.0480288334839645,0.0031775711952781,0.0047571913326369,9.86391294660471,0.540694862014116,-0.470634166447321,SIT
2.05,0.0524567495772128,0.0837300580211877,-0.0500727576961733,3.15670391252995,2.67599682774771,9.02983055980417,-0.0404012805238418,0.0216869978344976,0.0025352039788778,2.97946754983504,-0.886076207261071,9.49563473740596,0.027525796269823,0.0024296067326929,0.0154800028659225,9.84452935299528,0.544500949949036,-0.400125674519254,SIT
2.06,0.065387359116707,0.0533607925806815,-0.0376826890073959,3.15969748326954,2.68839420858955,9.05177471681393,-0.0428082358872898,0.0268862700276404,-0.0051059008243122,2.88221920265505,-0.899406990262178,9.46392768745742,0.0082852685563817,0.0012674816041904,0.0226111463748926,9.80959071553341,0.53792658861997,-0.519403201854904,SIT
2.07,0.0520639860599915,0.0274330457065729,-0.0256582508981509,3.11230871426971,2.72615116991598,9.06383878655921,-0.0296046498874687,0.0046413731059566,-0.0217664054734031,2.86048041401192,-0.904448648946487,9.41344567599275,0.001012611969412,0.0014690019967921,0.0149627477609615,9.83589912494615,0.521475241113787,-0.536409131797401,SIT
2.08,0.0314429666313872,0.00549247855168,-0.0108259815954497,3.09771058406084,2.72415908803803,8.98730880941133,-0.0105922525827502,-0.003346750567592,-0.0377949462683346,2.81651423590015,-0.867789585153041,9.34713121911351,-0.0167017195103978,0.0080305995385672,0.0128670378404689,9.75751074598111,0.539924879234396,-0.533596800394578,SIT
2.09,0.0084879297799004,0.0196070357481651,3.0520549939e-06,3.08420213644046,2.74724752373551,8.98741366237351,0.0019206891125006,-0.0098671430748159,-0.0566038641439562,2.78474130285505,-0.856129496511034,9.34790615473792,-0.022267217858831,0.0142116010282898,0.01200431336219,9.77256909598182,0.548212491785259,-0.622035685879174,SIT
2.1,-0.0153875968986002,0.0310433499902993,0.0089308432031309,3.0863479858243,2.80559099219325,8.99835816338726,0.0170886331527818,-0.0154065295754222,-0.0714426042867341,2.73876018543564,-0.77411786611688,9.31655937823584,-0.0288640154801507,0.0086415094297733,0.0072027444499214,9.74893155581228,0.518878539726254,-0.667644109188388,SIT
2.11,-0.0252344106061693,0.0403447056947217,0.0155043183518508,3.02817800005724,2.77094467741821,9.03543823741016,0.0292857552470706,-0.012196679635133,-0.084291876300566,2.75680924709356,-0.778710736053607,9.34554783291233,-0.036846687994133,0.004562458976026,0.0032956499920015,9.71249622795668,0.485373644869591,-0.589960981539208,SIT
2.12,-0.0405489964306554,0.0413670020969836,0.0240205212994003,3.00237641078311,2.64019806105519,9.13825815433682,0.0172771943989402,-0.0069384286044766,-0.0870747454264207,2.8575107870186,-0.753507384023035,9.39891380979893,-0.0240637862955093,-0.0011498342734721,-0.0015070095626573,9.67053739767208,0.538497681732719,-0.66420425499866,SIT
2.13,-0.0584897616728112,0.0170760374600068,0.0267464015965945,3.04331310057845,2.5458315172113,9.22708210923706,0.0116778803366459,-0.0073499491025695,-0.0792746045704438,2.81042339685722,-0.677628301286427,9.42709042444331,-0.0169240390326964,-0.0102949341587187,-0.0094705484020299,9.70095910336709,0.558025029331658,-0.564449585506178,SIT
2.14,-0.0655019548294942,-0.0233389224608722,0.0380405889478768,2.96056653850104,2.5752253402273,9.2315690027471,-0.0032133396348222,-0.0136142778554266,-0.066515234646881,2.75042102029753,-0.643002418267333,9.45025087828945,-0.0187977169229945,-0.0150186297135509,-0.0038884959685393,9.73954798985375,0.596792606709697,-0.608302807262002,SIT
2.15,-0.0559981530542315,-0.0536282266483516,0.0478650708813197,2.88536951818027,2.69367853645691,9.07014433853377,-0.0087106340207691,-0.0142051525749952,-0.0506588078285673,2.70725872836215,-0.611577562879773,9.44306922761762,-0.0141683771449825,-0.0235619389584423,-0.0002382451435978,9.73488526734491,0.611509845596543,-0.629258193357848,SIT
2.16,-0.0443005555389948,-0.049824472814669,0.0584327689541038,3.00403758335006,2.72567186000647,8.97762439492958,-0.0145098016338904,-0.0089441506314513,-0.0348752865930644,2.75810718864123,-0.623846259408343,9.41146652805486,-0.0205850810392015,-0.0203636311414171,-0.0044861014297402,9.70059145632116,0.559395344695175,-0.569390199763671,SIT
2.17,-0.0400274004249984,-0.0423671155308517,0.0672347881662084,3.07741886878282,2.73125646869172,8.94170600932048,-0.0154753877684012,-0.0097112353299097,-0.019656530430715,2.75132381763875,-0.593771402555106,9.42476122783736,-0.0266738500268465,-0.0199394564738575,-0.0095302229637015,9.7288555156589,0.55038712612479,-0.554241878380355,SIT
2.18,-0.0452459610049366,-0.0447718904078784,0.069879436600227,3.12825547112594,2.6942300810905,8.9835949059446,-0.0257441481916416,-0.0119503305044833,-0.0153368708063619,2.79313922557372,-0.636523898204665,9.4096589911698,-0.0271220201993903,-0.0160851737505112,-0.0114197557309401,9.74826509116808,0.498976907418973,-0.724496806183524,SIT
2.19,-0.049386935609294,-0.0290802735068755,0.0619021599133179,3.12604236997075,2.54368152960902,8.94137125868868,-0.0344066031636447,0.0083478828870337,-0.009255472775046,2.80110271952607,-0.715240225219678,9.27988220557563,-0.0251755200435032,-0.0017456776287589,-0.0146969618187737,9.77424556015399,0.509759162305379,-0.693305139731788,SIT
2.2,-0.0512515624776849,-0.0294629680074615,0.0450967139647068,3.06542551651547,2.44567515545961,8.85768750187925,-0.0353594949369862,0.0081427461227969,-0.015950813968254,2.84950386784903,-0.737519430045313,9.30799957456295,-0.0377116152355794,0.0123386415758526,-0.0199350225349931,9.74233742301577,0.463834456352482,-0.596637601064625,SIT
2.21,-0.0322526488560347,-0.0199896414927428,0.0222785128454352,3.07372243565186,2.30267214536714,8.89139555469917,-0.043646755641404,0.0208752682771404,-0.0197556075416065,2.90291463373072,-0.682273161557368,9.29547640016011,-0.0529967836243861,0.0291735244965068,-0.0189302177453796,9.74924759087188,0.432419910661623,-0.590242376890786,SIT
2.22,-0.014258805257387,-0.0158822957433161,0.0104329804316962,3.05958239342504,2.28965280770342,8.95770890920749,-0.0432775202434628,0.0290005670865067,-0.0192753775618535,2.88825171132469,-0.673144616037027,9.34753327198361,-0.0544082594340513,0.0205969007811382,-0.0114490229371796,9.76519052060926,0.395520834903121,-0.496020445000462,SIT
2.23,-0.004037218710597,-0.00414844985311,-0.0125432670322519,3.05465519686415,2.34202154735216,8.9466098958449,-0.0485353364955481,0.0188711278052251,-0.0174540755515235,2.87826858325383,-0.646208979709764,9.36162128550642,-0.0506230324648305,0.0090727419440885,-0.0112018671077385,9.78896585280633,0.425280414539123,-0.44739384065151,SIT
2.24,0.0052052171521604,0.0073721757325145,-0.0156414474872091,3.11068985969856,2.48707588888942,8.96518430650135,-0.0470688227687027,0.0075319736708219,-0.0186727184481234,2.87206222061745,-0.675539307292593,9.4589693491377,-0.0408055042134654,0.0078050623324852,-0.0063006481459321,9.844867324975,0.455267924283114,-0.593574724030241,SIT
2.25,0.0182854552012072,0.0074243331028933,-0.0155824951009227,3.09811745155885,2.53688081550408,9.04181822286208,-0.0394459224650445,-0.0015157809510088,-0.0132788388948312,2.91635864180751,-0.761951654744887,9.4088165780977,-0.0260511896291199,0.015975356613531,-0.0055183543581268,9.84491090098276,0.456047966037199,-0.592251828317721,SIT
2.26,0.0274880327459712,-0.0036348450600387,-0.0103817565439612,3.1679578135571,2.6360161886077,9.03764522207683,-0.0282691224878112,-0.0011843088623293,-0.0069934105346281,2.96193860806936,-0.787865636722717,9.35583694698516,-0.0242103352456143,0.0311694599610371,-0.0070219377977791,9.88791993890933,0.527996715748989,-0.51491843082184,SIT
2.27,0.0135989134834119,-0.0034737141456433,-0.0033224462329393,3.1687085416755,2.66520850271862,9.11328447391094,-0.0248503818232935,-0.004085808726347,0.0034384150769972,2.94969413000983,-0.77780550298511,9.40720005848532,-0.0257639931008995,0.0444351068594085,-0.0091740357193543,9.90758127960555,0.524346128953419,-0.581495641443748,SIT
2.28,-0.010319399236907,-0.009633786184914,0.0009604527692863,3.12023089023271,2.66499509919678,9.13700838718278,-0.0242170530698784,-0.0039520957302153,0.0079005098224315,2.91671975473146,-0.822185551664508,9.35125763179737,-0.0068985014961636,0.0588396149880135,-0.0114450722454411,9.93406417246728,0.511008042071625,-0.593461719508306,SIT
2.29,-0.009814965553155,-0.0331569460344644,0.0103339968402759,3.21473379355291,2.65984222273931,9.17634576201392,-0.0238843500718876,0.007974880016655,0.0144612347091093,2.84238003456926,-0.825459636767813,9.31028625844585,-0.0185297836516822,0.0654716200948886,-0.0173034410064082,10.0285700440654,0.453976845012825,-0.497984417124811,SIT
2.3,-0.0082940863308757,-0.0212806096450211,0.0092165224593816,3.34138119473898,2.64839276501421,9.0064404545007,-0.0191967597034428,0.0216143330531055,0.0222988101257478,2.85380314073286,-0.788050512183641,9.31556967735257,-0.0138420391790888,0.0875595637600364,-0.022676030665008,10.0705414472132,0.427895769939435,-0.64609363842721,SIT
2.31,-0.0224499091033004,0.0105811611453767,0.0075066333805987,3.33732078805954,2.64603877571323,8.89759181082461,-0.0219087341927534,0.034217108343559,0.0326074738733353,2.954621536378,-0.706726153674027,9.44798638901205,0.01014397289982,0.0998978792235774,-0.0303699605477186,10.1107915477508,0.372664636343886,-0.596380218692405,SIT
2.32,-0.028644178725679,0.022814333948629,0.0083762848108625,3.28356882422676,2.69658743887375,8.96635850717559,-0.0249029310863653,0.0325965675239425,0.048297551380904,2.97150758907474,-0.708235425857091,9.49943675494848,0.0217006280706179,0.114940044653508,-0.029580328926414,10.1238067302118,0.428329872877866,-0.610875429213731,SIT
2.33,-0.0381478073616072,0.0155443302807776,0.0066686441381671,3.24750592934336,2.67207192961208,9.04600736487469,-0.0218917053688312,0.0357499929061593,0.050607731657578,2.98929342783511,-0.695295573862967,9.4322371714261,0.0381601302946153,0.129598821103751,-0.0307417795370411,10.0856253809926,0.441669068208348,-0.737360107941593,SIT
2.34,-0.0414912628664987,-0.0128450978698905,-0.0092155136848051,3.20184135658398,2.46962203977599,9.14882200567883,-0.01571075687496,0.0420849866521263,0.0563467988052156,2.95310341908508,-0.650672479290267,9.41461629985353,0.0616589500794566,0.151606142400799,-0.0296993163706083,10.1157154910172,0.536014431466134,-0.607640002715827,SIT
2.35,-0.0272889525253827,-0.0408553965042511,-0.0204650437026505,3.18481274906997,2.34226738420338,9.1068208031046,-0.0226084335913423,0.0373693932870111,0.0560760732275292,2.85797192802432,-0.675266679107968,9.38774997184696,0.072100661705031,0.171428809521655,-0.0226275631587226,10.1405041501478,0.592278515695825,-0.62753584594079,SIT
2.36,-0.0430602190402041,-0.0460582907838589,-0.0172131830299303,3.1298041860208,2.5040164726773,9.06442916386964,-0.0226084335913423,0.0373693932870111,0.0560760732275292,2.85797192802432,-0.675266679107968,9.38774997184696,0.0614556473195983,0.190279433541083,-0.0137786467836039,10.1567001479677,0.627260079775283,-0.649891784817671,SIT
2.37,-0.0627829311701523,-0.0300779465921575,-0.0084213439292772,3.1556708746704,2.62742982782845,8.96471133849192,-0.0343184929656922,0.036779462220584,0.0533457040838571,2.89411580319645,-0.728235704770185,9.43317878432317,0.04050907954454,0.204165840982411,-0.0052327771449858,10.1320210924201,0.714421713029734,-0.745511833385946,SIT
2.38,-0.0715345659012827,-0.0201210033523718,0.0047999301057,3.21273290467565,2.56877813753504,8.95245721786526,-0.0468660378041773,0.0417576076593877,0.0541288922198161,2.8310033041108,-0.802717047036547,9.42467329724436,0.0232716416224923,0.227959742422553,0.0028754417089299,10.0497441775846,0.772070827835983,-0.692922874619095,SIT
2.39,-0.0672823557462964,-0.0378598094578766,0.0174172286240238,3.20336131798223,2.43974891218719,9.07436911001005,-0.0520770911608608,0.0397065046681187,0.0541812373548577,2.90183751397834,-0.748925581896303,9.46401511562456,0.0232716416224923,0.227959742422553,0.0028754417089299,10.0497441775846,0.772070827835983,-0.692922874619095,SIT
2.4,-0.0672823557462964,-0.0378598094578766,0.0174172286240238,3.20336131798223,2.43974891218719,9.07436911001005,-0.0486962275998813,0.0450542901581707,0.0548253790642034,2.81087556786807,-0.743088516243763,9.47538950336747,0.0232716416224923,0.227959742422553,0.0028754417089299,10.0497441775846,0.772070827835983,-0.692922874619095,SIT
2.41,-0.0631529861938565,-0.0434551017963631,0.0212746835218153,3.16863667901741,2.27281498712359,8.96739727630956,-0.0430186434635404,0.0394023106157078,0.0528949532321624,2.76126790390348,-0.770552759446182,9.41262325316224,0.0006288566827317,0.242184135140481,0.0063148764316255,9.99618454656808,0.804957828127369,-0.650683384963365,SIT
2.42,-0.066751912013143,-0.0436906471598106,0.0141401904928608,3.28681973471077,2.27826707226448,8.85295305662149,-0.039967252052272,0.0387385705320227,0.0491465683380359,2.70217656340147,-0.834060418842684,9.42533238494078,0.0017557006709012,0.26271280424552,-0.0026112648992822,9.89702871648588,0.762183780307691,-0.764746841832724,SIT
2.43,-0.0650210283744022,-0.0262068659071634,0.0092162262319603,3.11901415777161,2.31281527140765,8.92678377471928,-0.0439171251464094,0.0354325388936956,0.0401197306706569,2.74017079235825,-0.820874726041738,9.40880291239936,0.0017557006709012,0.26271280424552,-0.0026112648992822,9.89702871648588,0.762183780307691,-0.764746841832724,SIT
2.44,-0.0351915062334949,-0.0182553443054321,0.0079057164643292,3.01532772975245,2.30156130026547,9.0086772083192,-0.044032044810056,0.0394508374310116,0.0381339740748951,2.67846834619498,-0.835239817822513,9.39742542407906,0.0026304023134187,0.288211023398595,-0.0234446391988698,9.91949729575051,0.625706186909674,-0.648035457561402,SIT
2.45,-0.016826630637808,-0.0330875792247803,0.0051120160794181,3.09445172647498,2.28375913870583,9.11421481446996,-0.0355007839266375,0.0290233980911936,0.0322249745178661,2.72422040264462,-0.807767734463238,9.48326241483576,0.012197362334254,0.298381715670856,-0.02829921981002,9.98604213839485,0.562404581406094,-0.806523661732367,SIT
2.46,-0.0216715756000031,-0.0418721819957003,-0.004667737736677,2.97736050064919,2.29666873488324,9.14103997943592,-0.019880709090039,0.0112733642997696,0.0314100322197691,3.02940965193262,-0.804070585081799,9.33828514527346,0.0258625316033545,0.308599914365824,-0.0302943945119254,10.0447572533828,0.550532251363346,-0.706033517846399,SIT
2.47,-0.0297791661204558,-0.0500100182802695,-0.0078648372158208,2.94503546948613,2.35804681886381,9.14204624159238,-0.0108042758503468,0.0191520139680837,0.020408049823216,3.01726556182327,-0.895118771488896,9.35714776471634,0.0212836698034403,0.331042503243642,-0.0328635952187324,10.1052873148657,0.515032735351329,-0.652596992714169,SIT
2.48,-0.0182250297981737,-0.0618424640004028,-0.0067604717880966,3.00092760710635,2.41533334673,9.07299026521464,-0.0156317473961369,0.0095168490982991,0.0105640062935098,2.75067544453192,-0.930030679913479,9.3692711304379,0.0258707653547265,0.370015080470105,-0.0358776678830681,10.1470277006105,0.551824993866684,-0.692454056712053,SIT
2.49,-0.0071056866036919,-0.0599798730190672,-0.0063167548888661,3.01920978982285,2.56377889038179,9.0272929230263,-0.0131076035467482,0.0167682071401094,0.0006540704458469,2.59678105030161,-0.949608318008091,9.32463060458628,0.0258707653547265,0.370015080470105,-0.0358776678830681,10.1470277006105,0.551824993866684,-0.692454056712053,SIT
2.5,-0.0023042606674982,-0.0537747082029642,-0.0010010782024497,3.07192799307604,2.67591258807764,9.00162207873353,-0.0162095264957486,0.0235889461238715,-0.0014803648127209,2.53111190408758,-0.986110630201742,9.40994081393553,0.023145336831407,0.397777281669689,-0.0330551928904223,10.1764982233765,0.540737355264156,-0.669474382380972,SIT
2.51,-0.0221914455528497,-0.0482838257509173,0.0073649746825584,3.11056514028651,2.83492069748744,8.99891027425916,-0.0254150142446749,-0.0038388288567558,-0.0080743592650701,2.65911645395691,-0.993183672000819,9.51178651990236,0.0176848928535836,0.428623247920434,-0.0283300442262372,10.0800710133168,0.543930133300097,-0.609001029236963,SIT
2.52,-0.0409683734051283,-0.0495459813938229,0.0135123841632834,3.09765077795287,2.85311941782884,8.88988352847233,-0.0254150142446749,-0.0038388288567558,-0.0080743592650701,2.65911645395691,-0.993183672000819,9.51178651990236,0.0118233759680863,0.463234434422062,-0.0208519394455637,10.1100090122011,0.536690330262439,-0.545537384430756,SIT
2.53,-0.0647000628616982,-0.045039480092271,0.022950633512158,3.07306511407572,2.74628398181118,8.90211702433126,-0.0035079117221533,-0.0170146143837489,-0.0130584785530163,2.70342908326433,-1.07575228929966,9.39081105681243,0.0070823548385236,0.477807126528739,-0.0174056444710767,10.2044580029521,0.557594418135523,-0.622890887943537,SIT
2.54,-0.0843718765033499,-0.0387994959299181,0.0231476111719735,2.97030683473783,2.62052470451381,8.92986760214812,0.0243002995298961,-0.0180242730054971,-0.0123187670168345,2.67875924395845,-1.15403941711749,9.37969368425256,0.0080792955785894,0.496169157586262,-0.0148839232968576,10.2279748895959,0.573535209110615,-0.627476279715245,SIT
2.55,-0.0900169159004696,-0.0323809407499693,0.0208051469010723,2.86973228982617,2.49345828533801,9.01254002492157,0.0600292511731551,-0.0319089554318932,-0.0100201013894535,2.69268528622958,-1.12535335401202,9.5034664869038,0.018550420846103,0.524848475546818,-0.0009503570573185,10.3918439107699,0.641066897614195,-0.583423343588035,SIT
2.56,-0.0824979797313404,-0.0307266882311985,0.0141094481162945,2.83588369209726,2.37801776447838,9.05893037919934,0.085253722546209,-0.0422598345374356,0.0044971570627325,2.58190164501884,-1.07685884060347,9.47682172170717,0.033068524231924,0.563926792709031,0.0086953955608329,10.4410109207786,0.649996457334545,-0.649763446649555,SIT
2.57,-0.0679869168262425,-0.0340672645170611,0.0081546709744737,2.78440738850748,2.42354341785295,9.0738749769288,0.103253839386543,-0.0472116745103282,0.0097656326000784,2.524356636682,-1.13253363772092,9.3268761863982,0.0505045288041015,0.600150786428356,0.0168791389736103,10.4235657565337,0.748891735102458,-0.725860743930441,SIT
2.58,-0.0519012594255423,-0.0379680330241416,0.0052788046147754,2.83080427561382,2.47184514820354,9.03959313347113,0.128455697933259,-0.0454332738463031,0.0205504469739564,2.54944752827618,-1.11297412476737,9.31840821949368,0.0653142554058424,0.64398500035388,0.0165601208171158,10.4129670799464,0.823455101613199,-0.602902511290332,SIT
2.59,-0.0392386475689872,-0.0392244570263352,0.0043169740909923,2.92032208387934,2.57547397023394,8.97018253519085,0.161984173974364,-0.0581129428200155,0.0251563956975852,2.53235209330166,-0.94818046021584,9.35752444769199,0.056479160345741,0.685903221252331,0.0121834231657806,10.4548743172338,0.879174246625722,-0.436440152082418,SIT
2.6,-0.0449908713405413,-0.0282145400617051,0.0017846517593405,3.03347361713914,2.68967744990083,8.99804518329075,0.164912350230643,-0.0629182295567076,0.0291477044779231,2.47294732586906,-0.69123728902802,9.38667051001202,0.034645259007018,0.725965466022434,0.0089228716525791,10.3554193472333,0.892446924864639,-0.369092821518138,SIT
2.61,-0.0580460341482146,-0.0280402694601469,0.006364094918995,3.04968151047365,2.63728070848861,8.97562303517924,0.136960679535751,-0.0638262348040859,0.024291013765974,2.38037831220734,-0.645305756004493,9.38891593079892,0.0156617309271719,0.753323481324904,0.0014316825469411,10.3206252673771,0.829634963559378,-0.303017339869759,SIT
2.62,-0.0783240214848954,-0.0285061579602211,0.0140324266132157,3.09355016824809,2.57341689434887,8.88639869289821,0.10721098770432,-0.0735670155186163,0.0239145262859398,2.5394756375675,-0.616077902919531,9.43216432719047,0.0325853637347109,0.773860122913412,-0.0046323359083612,10.1824894714965,0.857195784367839,-0.794766962232965,SIT
2.63,-0.109375487007555,-0.0145016110254719,0.0006974153611752,3.04207629743551,2.5056057572656,8.90143409910678,0.0901470312130269,-0.0683634533913748,0.0253216624908459,2.42871946716554,-0.685377490623923,9.41033309456148,0.110793169003912,0.821918244020746,0.0015768420276515,10.2251383255604,0.832094084294308,-0.917970224153694,SIT
2.64,-0.133898023122709,-0.0042932742457542,-0.0083927640248202,3.03217047611205,2.48969685736888,8.88284257299094,0.110227428747436,-0.0621226235740596,0.0163668604839439,2.37297774463589,-0.857670458237307,9.34713032785447,0.0995538768020386,0.89037938574844,0.0159434843400972,10.3038920983155,0.82840732979873,-0.143981626719884,SIT
2.65,-0.157594173744673,-0.0064909212968918,-0.0159271830475257,2.87354076326266,2.41047902403431,8.98160261755512,0.134152730448784,-0.0664716283639453,0.0159809520312657,2.34683208106176,-0.951239019084456,9.43440612773089,0.0313555790010723,0.928485537648629,0.0350431495107722,10.2922820208646,0.892721062341706,-0.0616019111963356,SIT
2.66,-0.15458165445973,-0.0074164316992736,-0.0270981629017909,2.61430898547617,2.2774372763546,8.9757654948409,0.155855259463083,-0.0974632972719009,0.0113783375533167,2.31871004967675,-1.04644134516669,9.44100792318267,0.0134654423341128,0.956652865001057,0.044923198066706,10.1300709187736,0.667258095747815,-0.262194704244806,SIT
2.67,-0.137028726503872,-0.0317767183171973,-0.0317088404217082,2.42654335787718,2.29384012036205,9.06583049618694,0.186824578786049,-0.10672875516134,0.0040702401575321,2.53255247972798,-0.958339025238899,9.39001173020243,0.0052108214695444,0.996288479776814,0.0468781018485431,10.1133547166326,0.638628291731431,-0.179238686341834,SIT
2.68,-0.111646114747085,-0.0390718281971011,-0.0380548439745759,2.51705771373195,2.21994296774468,9.09477459578267,0.174119133458989,-0.117256276695598,-0.013531049827269,2.43591039040977,-0.769506744568093,9.37743411642159,0.0066066031409725,1.03881233339002,0.0648010785162522,10.1903115778453,0.604284791930024,-0.0112728059852658,SIT
2.69,-0.096583784390637,-0.0063374005005129,-0.0424362484683681,2.59754097766297,2.184896604606,8.84014933307003,0.162648300632302,-0.159048969509387,-0.0347755053299082,2.21681705152691,-0.628622056032889,9.35789137986906,-0.0080097359701788,1.07579000427233,0.0788169703969943,10.4339834830298,0.624540318437157,0.104045616605448,SIT
2.7,-0.0760618347697273,0.0171845685784379,-0.0535717718025805,2.71504809505126,2.27627239430488,8.81549608620689,0.162572273757443,-0.18616699503994,-0.0632826704948339,2.11077122812698,-0.553219459956469,9.46137911856375,0.0194334740496797,1.12627194758503,0.0915498217506774,10.6177661762304,0.747647905434781,-0.867295434658853,SIT
2.71,-0.046851794305106,0.0184015214780242,-0.0740145229915909,2.77757977319707,2.36232621300671,8.9029284900896,0.151480467206119,-0.213446705302813,-0.103825774131101,1.99280256914679,-0.409152353908255,9.5317004993006,0.0660864078006837,1.21892087894256,0.0958192261166999,10.4433885451957,0.958432544857991,-0.819779081226443,SIT
2.72,-0.0478144066859412,0.016627634516661,-0.106029133642509,2.81499947375633,2.35564227557209,8.91312592718089,0.135699674601414,-0.240419499426528,-0.151751670373211,2.01885512297703,-0.220196806778612,9.57612622332142,-0.0340765716321666,1.31564927896743,0.076724636894029,10.3531304114026,0.988950933002352,0.244507360702856,SIT
2.73,-0.0508729368708633,-0.0282873456168133,-0.134338099779916,2.8309160534516,1.98870522189635,9.1029197420861,0.0802393579507916,-0.235706093969042,-0.198164766266208,2.13285896270245,-0.20748092101914,9.58107391812513,-0.0847097883557809,1.31656261615334,0.0564790986080448,10.3647185036301,0.846260361466712,0.103212218570018,SIT
2.74,-0.0394841586071879,-0.0920708184143609,-0.156343470050062,2.78899037283691,1.33535357671186,9.22296726111969,-0.0097547284473363,-0.243436788526244,-0.220202655924258,2.14206679467094,-0.299278610956756,9.5756881438519,-0.10367447124729,1.25475984929151,0.0361432402116949,10.4959820668623,0.64934807702417,0.431767932917813,SIT
2.75,-0.0394841586071879,-0.0920708184143609,-0.156343470050062,2.78899037283691,1.33535357671186,9.22296726111969,-0.0594282201615265,-0.286630460541589,-0.231550533690737,2.13604647573618,-0.365571599873365,9.75347069092376,-0.162438284033368,1.23543500119197,0.0099358160138826,10.6563412259109,0.515204073021774,0.472827041545286,SIT
2.76,0.044280529923368,-0.166513689769526,-0.151312068337695,2.55473780620278,0.946043112782211,9.43675822949325,-0.0725060971123663,-0.320954104107562,-0.23811610048035,2.25736037194952,-0.350513329692065,10.027937938497,-0.155353483417288,1.22827840028091,0.0075506632578536,10.944366792105,0.505429040417216,0.0972790211061037,SIT
2.77,0.19951123279795,-0.333844347854495,-0.0824002921248654,2.44387992808571,0.873750832365444,9.85497179855468,-0.061609005096332,-0.396478447425666,-0.260226628345316,2.1325970211364,-0.295356674711835,10.4191334074143,-0.15171417809548,1.25823420226153,0.0086416366050052,11.1354153636822,0.492521879788103,0.68904952092227,SIT
2.78,0.323535111539399,-0.386276042897485,-0.0045117082297546,2.70293889900432,0.989521155662141,9.56805070657095,0.0158609494143794,-0.573323796674106,-0.342514879501663,2.04330598298861,-0.650478955069509,10.8847046008022,-0.176507454233875,1.28898130652584,-0.0031667511361581,10.8889249484999,0.511046926848189,1.3461908754599,SIT
2.79,0.40765988688784,-0.430092335227731,0.0995895373525332,2.56319861665305,1.44745756921213,10.2709205695288,0.0394129813900705,-0.702212881497025,-0.470859428327439,2.48495575814525,-0.601921274770356,10.5141054274984,-0.290805587333904,1.22502575601689,-0.0112796837490098,10.7279440326394,0.350191880685045,1.81221426355507,SIT
2.8,0.431839190180275,-0.593272206113723,0.190892558916432,2.11965988089429,2.05606518755686,11.1574318176084,0.0702616448419769,-0.863515243059388,-0.607846887614513,2.05686453028811,-0.41204126711523,9.89972668710156,-0.377342319330741,1.13201198583615,-0.0286633359629654,10.7390247523919,0.396273141637449,2.19329274679079,SIT
2.81,0.376721862980436,-0.88439918227697,0.257023270123582,1.58513003771702,2.63485574692758,11.2402521994808,0.107395338646944,-1.0193707852369,-0.704143227543844,2.17637236587238,-1.35878341738597,9.23634024621286,-0.329282613078221,1.04428574389142,-0.0212797629395366,10.7924196430868,0.509964647208393,2.31647643569239,SIT
2.82,0.249253063266686,-1.12035200982271,0.330084211879173,1.7764302173724,3.32227803955864,10.7489627034411,0.249512142415262,-1.02178048520862,-0.752030702381413,2.52581830189212,-2.68233481873443,8.8725376931685,-0.270934698531717,0.948343006444369,0.0012295178814807,10.8177978697498,0.542362199144894,2.70535447241564,SIT
2.83,0.266895618812701,-1.39156514488655,0.460628279968253,2.17998054406384,4.01536375709957,9.36129358483244,0.536640375115694,-1.12580758145849,-0.770375390311882,2.25529580773798,-3.14219853593659,9.52441831958058,-0.192417735502105,0.891752976127137,0.0090244995743155,10.823560939472,0.537242145267531,2.68798472015053,SIT
2.84,0.328440135153272,-1.38631538041333,0.556615045466655,2.63017981159058,4.01664573746657,7.75441794279067,0.847653126983673,-1.16580030566598,-0.737627063696217,3.20939145277234,-2.37290757686509,8.54020028808406,-0.0986398910387522,0.85745001811594,0.0146408483829981,10.8105369769016,0.589097827961522,2.79736448829527,SIT
2.85,0.196683746858709,-1.39629642262585,0.55088178872804,2.10653293863764,3.84798218481828,8.67490428434235,0.844240125747355,-0.882297860467077,-0.573778041921847,3.87769751204206,-1.7720301897232,8.19403182995906,-0.0503034178737806,0.821151700790093,-0.0002590232671089,10.8309565190228,0.569489686437413,3.46887908441273,SIT
2.86,0.104822875203433,-1.54508551907694,0.468856374763643,1.93477926834525,3.82455003198675,8.51860528849106,0.898386032975757,-0.853271040874023,-0.437148635138864,3.66406282726781,-1.57354788114781,9.82970238276051,-0.0259435440943639,0.801362267774503,-0.0271906841128584,10.6653952917979,0.728586542024452,3.56567439834361,SIT
2.87,0.0434381403401317,-1.4798515047876,0.312808230606663,2.56558083252125,3.35244289778526,8.26548092246559,0.870112815606115,-0.975083964089459,-0.289889675802714,3.77378961749257,-1.73812625902891,9.76083154442241,-0.014843731803447,0.78139615490962,-0.0489175630729964,10.3928104563132,0.799186499975574,3.72623909556177,SIT
2.88,-0.0225796600014595,-1.35119721482458,0.16342031443638,3.00346555777798,3.87115404653939,8.90079300670587,0.793925482342846,-0.98003815189624,-0.145437051387596,4.19440639263425,-2.15401235151291,9.63093426624903,-0.0286922890600678,0.79058877489973,-0.0775350788210099,10.0919151072804,0.82628905076362,4.24622955453851,SIT
2.89,-0.0220448268667931,-1.3545925697156,0.0658666144220632,3.91882992599711,3.89008630221974,8.64197996862504,0.804275153487252,-1.03244971345152,-0.0866483163450596,4.33822470934498,-1.92410761494667,9.64637237248746,-0.0475869284985081,0.776837331514314,-0.102847721341235,9.87026365615386,0.942996804622034,4.19154164968912,SIT
2.9,-0.0432674050238912,-1.23823338853258,0.0393625714126189,4.97809435541587,4.80174946552892,8.31472934680103,0.807060643532381,-0.975557666377422,-0.0459003362472292,3.97764393763558,-1.41708504091344,9.30575200885596,-0.0581328654560219,0.781767561942829,-0.128035307436518,9.67448914634822,1.14178539743144,4.16881772947509,SIT
2.91,-0.131268740135326,-1.17369399771086,0.0929513048966493,5.52132202661235,4.33847168374034,8.43285999044773,0.870360227006596,-0.995204950688345,-0.0167927745280166,3.88863686261413,-0.546910005147457,9.32862635444235,-0.0853335468038535,0.775966334548369,-0.154586476376797,9.62265371660326,1.1569279617081,4.68190229747151,SIT
2.92,-0.250548786728865,-1.16709775694736,0.10972229271465,5.67977274818162,3.25971507097934,8.18661123785686,0.862066438760576,-0.981514423378785,0.0207088081545868,4.01777052545881,0.497878117905411,9.17724562800987,-0.145370023538966,0.761575826148026,-0.17058660481202,9.78695263188443,0.883477721664219,4.79385986537484,SIT
2.93,-0.288481541545491,-1.08603141184304,0.113195485106878,5.52805497877705,2.40083845723001,8.639586262171,0.841652670248924,-1.00957291168347,0.0589812263599736,4.02232723482065,1.36038213367029,9.29873043811155,-0.179462660870242,0.718917953284701,-0.179911983269798,9.77336809906929,0.520093440713515,4.64376005158954,SIT
2.94,-0.293495408456059,-1.07731004853286,0.132071244045968,5.19838133423884,2.08889978181868,8.6141404526051,0.743149917540664,-1.03016201074379,0.0797319156285916,4.17661350057402,1.91983761500574,9.44049201834722,-0.188164541561935,0.650768138794834,-0.164549249989045,9.74490463528572,0.0851187219772167,4.80434999812045,STAND_UP
2.95,-0.262016290645018,-1.05692315850263,0.181071419031067,5.00238591951905,2.12074686586263,8.81070426800403,0.613842784475609,-1.07014757053893,0.0846208664730058,3.98866734023918,2.51868340322654,9.57976526873102,-0.180585061651868,0.600520294473209,-0.130878005876867,9.7710223720984,-0.264966512652953,4.91146963417649,STAND_UP
2.96,-0.308390932014887,-1.05728361549483,0.238659639002935,5.14786070084274,2.10364029804203,9.16929813762594,0.438600242366972,-1.11005764329288,0.0848673292414851,4.46293096375938,2.47367033810654,9.12216307763419,-0.124648300776797,0.538725101298743,-0.0888833077347798,9.64403167050889,-0.409452837332621,4.60706667266166,STAND_UP
2.97,-0.356953092203176,-1.06546696067066,0.309388476615378,5.16095877303102,1.31735343666728,8.80669448933188,0.223143652557,-1.13344762681165,0.0546317760745263,4.59347831723555,2.90158112347084,9.26764013937635,-0.0787666586463877,0.478652291884711,-0.0478047293556311,9.66219147406811,-0.283362799909203,4.82695213559795,STAND_UP
2.98,-0.374082538832734,-1.04313565038586,0.368830531488432,5.16793359609626,1.06829356874248,8.68840389699657,0.0522546960351932,-1.18523223240662,0.0687483200487205,4.60190146617695,2.7373288496601,9.06084266358399,-0.0311407547591702,0.42105937848183,-0.0260614989206234,9.90133378915776,0.0020878757050851,4.87006947133942,STAND_UP
2.99,-0.364105935986136,-1.01040487130738,0.409348021778737,5.31675240726369,1.16773569888528,8.71652475237484,-0.0690810407860944,-1.2448271216757,0.0919335929867276,4.91878634280608,1.42585284137036,8.85664642501293,0.014293062980538,0.369070118631982,-0.0272881034232769,10.2133711020768,0.312617219748082,4.78628917944307,STAND_UP
3.0,-0.2926472391161,-1.05265070776652,0.435473031485934,5.70456842216636,1.11843662855683,8.23813497536683,-0.100188649569317,-1.26372107214857,0.0988116007017184,5.07992691045083,0.523115905853696,8.59640048317043,0.0787937918809284,0.315611039327301,-0.0363563280603322,10.4800905689421,0.553387338259552,4.72494984911688,STAND_UP
3.01,-0.163043881346386,-1.12568013611207,0.437502589718228,5.70798525813561,1.19558391064156,8.46545031279911,-0.0356262952553209,-1.28291616408788,0.0939082217034297,5.07939607905069,0.237859853436273,8.75943735537948,0.0981436546631155,0.264459448645926,-0.0377520652481782,10.5673780114162,0.744129796345881,4.60668431522159,STAND_UP
3.02,-0.10264175198996,-1.1561793997781,0.420220227415806,5.97321415294353,1.51831247569111,8.23020892137861,-0.0282940973797388,-1.31384106606214,0.0873429115583512,5.29707764504165,-0.186185328989501,8.76019736911117,0.0743875073830149,0.238152249418875,-0.0506806353975905,10.4639077956861,0.918262794473225,4.83830186478588,STAND_UP
3.03,-0.121046901928613,-1.18468392807036,0.412596573865422,5.73719945656162,2.0133270598487,8.15198308130066,0.0460419421572625,-1.41349922498054,0.0938445777887957,5.39340856339671,-0.0358519223149502,8.71335029869757,0.0187183161979979,0.186850135352192,-0.044163617915211,10.4608289313851,0.869580564091489,5.13485996966808,STAND_UP
3.04,-0.0140453822708598,-1.30044224710627,0.414804797776018,5.86587866445073,2.1147236708443,7.89283757946931,0.0971088274990732,-1.49218279653138,0.0843579531958144,5.75492720479734,0.364596360432921,8.23316489268032,-0.0195585679537994,0.119355774282821,-0.0330323479905019,10.5086514142395,0.804338511504961,4.91838054191855,STAND_UP
3.05,0.11150728891643,-1.28647784908824,0.408898713857209,6.29098453091414,2.15267876276623,7.69576426919527,0.126342430679995,-1.51020841253684,0.0768537389132981,6.17751110269286,0.607925164125714,8.09699637909012,-0.0412962973517874,0.0902142861077164,-0.0195388701878288,10.6071232263344,0.766578453268528,4.82793101923771,STAND_UP
3.06,0.124386842052592,-1.34415217145245,0.394135843319301,6.03215903492925,2.28299313355868,7.56383687384297,0.124462219133802,-1.56784656587893,0.0552949933872643,6.54543008901526,0.777134880014918,8.07225316176271,-0.067632334110193,0.0529249972797143,-0.007440442381002,10.4706168627402,0.618063750921792,4.90893214158702,STAND_UP
3.07,0.0916647102917805,-1.43340788428102,0.372286961504143,6.01135794052572,2.48530639150631,7.45933681395768,0.14835653294391,-1.58740180373346,0.0441556685151407,6.377334394364,1.17989527599971,7.93169589399701,-0.0848574446697748,0.0011207740820882,-0.007033119552697,10.2219296962581,0.520819459512125,4.77745198029474,STAND_UP
3.08,0.0256232797264088,-1.42960959484484,0.374189402262097,6.47166302521076,2.45330362663998,7.36335445367946,0.154873154960371,-1.64709361085405,0.0439028291381933,6.19862340521824,1.19994487688113,7.86823269452741,-0.0767672524966418,-0.0443847076353833,-0.0090493964635171,10.0908234417077,0.462314425511627,4.66767814695567,STAND_UP
3.09,-0.0457470173711429,-1.4569961904173,0.405361087665157,6.77643039267756,2.44298374277952,7.42422354903591,0.0737659975343987,-1.67505553026032,0.0171426416452434,6.43415050673733,1.58523668487856,7.34968341004406,-0.0555693140478569,-0.0876846596745662,-0.019097083563411,10.094328790607,0.482346048087047,4.58330966320113,STAND_UP
3.1,-0.0160333058153966,-1.52166538604378,0.421264515878338,7.06682723761552,2.15555354712031,7.10964086090848,0.0486466054241023,-1.68425801908463,0.011936296003984,6.78889422871371,1.92837415365467,7.26643413037758,-0.0350344023204468,-0.123505844827538,-0.0315291912949687,10.0544706998759,0.592520282993265,4.42744421567522,STAND_UP
3.11,0.0195373703292807,-1.51783594688493,0.431768253846645,7.43830781162905,1.8662611577929,6.71739697224846,0.0200309472908266,-1.67683716434428,0.0314295089793659,7.26624590009039,2.12907290959961,7.24107453643406,-0.0265369898020671,-0.16111990421745,-0.0401085243101526,10.0009751114314,0.621041202825374,4.611484811477,STAND_UP
3.12,0.0111876569387171,-1.49615580946517,0.423546597051276,7.55757009890499,1.74077847806038,6.88768341088192,-0.0713804919615166,-1.65502755206987,0.0553780855440402,7.67860442359938,2.05031000572273,7.11775034703418,-0.0212050879959042,-0.200830602811017,-0.0405835812429492,9.99093545719933,0.704786890067659,4.46320577560305,STAND_UP
3.13,0.0052828757042829,-1.52173090041159,0.404210453908706,7.49192716488357,1.86241864944253,6.44144406341656,-0.155751643504885,-1.6201216778022,0.080540679097845,8.0176336235528,1.62974296151483,7.10231129573265,-0.0194287239788338,-0.230738694176616,-0.0264554100364411,9.88489522085042,0.690200962976678,4.33772312421137,STAND_UP
3.14,0.0078957401172284,-1.58755209979507,0.376544047324244,7.4315092888063,2.05998861896234,6.04231890964246,-0.20457578500618,-1.60573837336261,0.0967283590543089,8.2379698012975,1.1808813991904,6.81569790957458,-0.0345544738836396,-0.266238377288428,-0.0134801541191782,9.62380113057009,0.672732026900725,4.33199065627718,STAND_UP
3.15,0.0427556324163846,-1.56199842981391,0.369801524599503,7.55559143153919,2.39379717005882,6.31035584029241,-0.237022101700725,-1.61118523216719,0.0884608636415093,8.34050903737209,0.681408831775729,6.61431745609553,-0.0574296297740179,-0.291142707056262,0.000995386127152,9.40838320465438,0.657498315130411,4.21118330373908,STAND_UP
3.16,0.0117862444034407,-1.59484642572017,0.360562187552698,7.58423972908214,2.25290724760751,6.11437399070299,-0.275080139394301,-1.6742163957065,0.0506017512680696,8.0875371651404,0.565884912805742,6.01690973050734,-0.0770576774897234,-0.324699587822624,0.0128911542131175,9.26394179106928,0.718340086211512,4.0721251316552,STAND_UP
3.17,0.0124462912181634,-1.57007883764287,0.351774593129846,7.73495704901631,2.09833137748058,5.64905293081807,-0.234102549202187,-1.78248607758458,0.0214278770843598,7.52422626058602,0.458242947727827,5.44181863474649,-0.087746427349381,-0.35734756956135,0.0239350084706507,9.18706796204291,0.791929994910735,3.95730531619084,STAND_UP
3.18,-0.0173489181279496,-1.55366200147215,0.343146496867767,7.62453770364148,2.12619207384657,5.55696776224484,-0.171668261888603,-1.82813080334383,0.0202999875797985,7.33237322979176,0.144821130304264,5.4768757308188,-0.0894566397310021,-0.377105300344355,0.0334270678145244,9.13436618477745,0.74486622370963,3.84487692597076,STAND_UP
3.19,0.001435891509612,-1.57468860790086,0.329860446949304,7.84954203968417,2.02566054758199,5.38505084790893,-0.12125976733321,-1.78644468278126,0.018676567998128,7.34821164546672,-0.183911723357665,5.82681277995051,-0.0986454201424613,-0.407874216224295,0.0283000046074787,9.04206563866332,0.654491539677778,3.71910372395424,STAND_UP
3.2,0.0411666754583165,-1.5379619828039,0.325077136495757,8.31325052601249,1.58706211531332,5.36127001624855,-0.0429823306596905,-1.72525499309932,0.0289670894686101,7.75006527585081,0.0210399972035854,5.82419043759733,-0.108978049936087,-0.430203467396336,0.0227600100214233,8.8977350163251,0.62702626510539,3.69491540225978,STAND_UP
3.21,0.0583571234943611,-1.51164827367929,0.325083694502703,8.51222758037883,1.25885077232441,5.21091895620351,0.005015203074789,-1.70395791256735,0.0367493414358259,8.09785497397719,0.274192260286671,5.74093181290285,-0.1252487908983,-0.464036277686651,0.0064724700858824,8.80418956330121,0.575751348106347,3.69182473112043,STAND_UP
3.22,0.0522363322536765,-1.52667822180031,0.326305126673641,8.48317887702262,0.984670548486817,5.08642757327489,0.0223740199428625,-1.6998407195911,0.0425499595552822,8.43765418335256,0.546009866006087,5.4717027760502,-0.125885147026447,-0.501281712967064,-0.0023133784720531,8.71800300325582,0.540127383081012,3.44532566575828,STAND_UP
3.23,0.0677185830136603,-1.55024810138261,0.334597986068149,8.44753376547486,0.936271377966216,4.91627269295063,-0.0265058684477788,-1.69415843060253,0.0336534365758266,8.57478911147827,0.778001946119891,5.30812076014091,-0.118217275384468,-0.537744438719214,-0.0148549138229528,8.61399227331672,0.381080173799671,3.3143208579697,STAND_UP
3.24,0.0895862949189369,-1.54248175924306,0.334293408485767,8.32737532696721,0.955257363729857,4.88460794217684,-0.0569091279149883,-1.69237968035643,0.0306872024374876,8.61530245463342,0.664580646536192,5.1484025144072,-0.102162407243211,-0.560719025247422,-0.0103822287766505,8.51017341000614,0.298390711600686,3.21110017793127,STAND_UP
3.25,0.112891759816378,-1.54419897686167,0.344040728838088,8.4238223822555,0.949993755473801,4.71335140534969,-0.101721508483234,-1.71226961398885,0.0347476731723306,8.64288206436508,0.540603339079266,5.09651879587018,-0.0791277080919509,-0.585507901069292,-0.0149218967085575,8.32695300499296,0.281112604049127,3.14502879115036,STAND_UP
3.26,0.123911389896378,-1.58472671075152,0.36008960853154,8.59868016917608,0.77535223710408,4.4715525155849,-0.121997267944336,-1.72473519166093,0.0557004641578054,8.52991393567011,0.323914644659278,4.76154806208561,-0.0697214752288833,-0.607441939805865,0.0041226414695501,8.17761255310598,0.276268959074003,3.12704815878287,STAND_UP
3.27,0.111079081007932,-1.58369603543501,0.387592134730803,8.54599475683913,0.920361767651515,4.26942670221149,-0.0821094628719946,-1.7431708412112,0.0882695255371573,8.55472804656295,0.140924757663276,4.31032816063536,-0.0579239833894388,-0.632728215015008,0.0186386644381958,8.04705518027552,0.297757690303341,3.03909896105739,STAND_UP
3.28,0.0859091773976002,-1.58867033011,0.420334769461468,8.2768003790465,0.975329436566956,4.08753376239984,-0.064911978186729,-1.74808573694406,0.105411604567389,8.47794955481702,0.0902823584322749,4.24930185111763,-0.0439085886978413,-0.664817903575653,0.0415124606325343,7.96390798048513,0.245550074214029,2.7722329935712,STAND_UP
3.29,0.0620384275727146,-1.59298871176975,0.444686699437146,8.14710623217348,1.052468327814,3.95194535741806,-0.0978494032677214,-1.69009290216805,0.103255848594962,8.52051648589027,0.123706919565918,3.99642874213881,-0.0302271595995327,-0.684916607919285,0.0538130360327232,7.85875909951413,0.349532967992088,2.62904833736313,STAND_UP
3.3,0.0623771941157632,-1.57681970032456,0.444027182950931,8.2226713446366,1.05163173076403,3.72704491609426,-0.130931911333364,-1.65047411195849,0.0961389083511875,8.29598321830333,0.490360043950909,4.06913272216647,-0.0167298634776647,-0.692073419747398,0.0600468563537942,7.80336167942509,0.499686002066577,2.62675000346195,STAND_UP
3.31,0.0967265477163676,-1.55864394486296,0.446992724709351,8.53825663990566,0.909446626414081,3.78186590730161,-0.107953900783889,-1.64134215680238,0.0914384254789478,8.17285394930779,0.815420195094189,4.11616300634631,-0.0226835334648512,-0.696775465405831,0.0597137032746256,7.74247868753782,0.548280767288415,2.54157921419739,STAND_UP
3.32,0.116598194639,-1.5148786753516,0.44473443329269,8.85271622070866,0.776805065932337,3.55773949118862,-0.127030774165118,-1.60893930837967,0.0728355706938144,8.32955441274646,0.607216293860856,4.12906168128773,-0.0282036029731816,-0.706448235634124,0.051666274728122,7.73517017722309,0.656611114391296,2.32283471235682,STAND_UP
3.33,0.139720963883523,-1.49019970875825,0.442653681431364,9.0955620441091,0.85090005440403,3.52796820559324,-0.139765691136169,-1.5798023069451,0.0323283006327711,8.5612552985062,0.559069211279982,3.89898965077612,-0.0159834997779947,-0.708211523034449,0.038891230784136,7.65206587972108,0.648415973262159,2.34661750628807,STAND_UP
3.34,0.148798570451056,-1.45451894143927,0.453018717099312,9.18605810376436,0.838147246312746,3.65871434379321,-0.165787220999092,-1.57491235719882,-0.0008718307125916,8.60879838964945,0.552546252192679,3.67725348973153,-0.0096164646514267,-0.709667167297081,0.024556661436508,7.57958311288864,0.638368359290781,2.33859547178162,STAND_UP
3.35,0.148783127415221,-1.45764592001488,0.452981204138062,9.16850091809834,0.90454806112064,3.48717845262798,-0.192840338906026,-1.55799602140484,-0.0272265409130728,8.76569403949573,0.41465775676791,3.49076446863195,-0.0081729221564154,-0.717961153930752,0.0114446102252806,7.53583368756335,0.600254408121081,2.34250072395,STAND_UP
3.36,0.160301791881301,-1.46813604698915,0.453266970645639,9.25645302195002,0.718702517548128,3.11383551773906,-0.23555274836185,-1.55690479167567,-0.04057556311917,8.75758369621122,0.164748989118561,3.53499759805028,-0.0060757202018443,-0.72818728031296,0.0017957343176724,7.5192946862308,0.413925813965483,2.26011114277121,STAND_UP
3.37,0.152968693940154,-1.45741923045811,0.447794747749241,9.25238099248993,0.74379055220127,3.30997615078658,-0.241935155782513,-1.56901546792368,-0.0464838299235135,8.61498463679938,-0.0574284540647392,3.66165497201246,-0.0036457688276093,-0.739439403939994,-0.0025108736260151,7.45957374625236,0.249722166864679,2.12733404965243,STAND_UP
3.38,0.182341978769937,-1.43779518992264,0.456745322885219,9.0085263298312,0.618517470439246,3.06607745489057,-0.184019122560066,-1.57870891294044,-0.02933161410202,8.71834375105112,-0.411896867863804,3.19820371083235,0.0068133218219843,-0.752601174878879,0.0036590678610947,7.38046993468379,0.136532650313407,2.12857234545459,STAND_UP
3.39,0.181024815547213,-1.46015710031555,0.47523774618206,8.61027850993094,0.504441920881697,3.19868609269893,-0.0858327022455863,-1.54651988080343,-0.0214967673580779,8.79830047652702,-0.350586385763103,3.041106209266,0.0293182363957771,-0.773729488133363,0.019944820502907,7.3491817938283,0.0766005362923356,2.20877949868743,STAND_UP
3.4,0.173033228704881,-1.4874211040869,0.495660441209143,8.43235716280465,0.479749944741651,2.86381782330557,0.0254605183702577,-1.53673393844117,-0.0336332945875391,8.63643050208331,-0.2278682842951,2.88167022260074,0.0431359068789185,-0.797312718600261,0.0316979838918538,7.29285612527013,0.0815952407375444,2.0243745253653,STAND_UP
3.41,0.203612765926586,-1.47173441436302,0.508445961473838,8.45730558787251,0.674133160309031,2.65894471791739,0.0499299153855587,-1.54848122358267,-0.0288086166009648,8.51574386934496,-0.277883249607937,3.20358502604842,0.0821692697961817,-0.802699467030329,0.0488268597013667,7.22752489908653,0.104449052162138,1.85432194941365,STAND_UP
3.42,0.232364608729943,-1.44508520279642,0.508448161332611,8.53943896636413,0.878361749216269,2.52309529113604,-0.0548318890265973,-1.54048848430047,-0.0539821258624603,8.60557296209289,0.170384468522234,2.99755442728597,0.101530152861295,-0.805661749483766,0.0600033632522914,7.13695211495836,0.304470694396335,1.98316810484808,STAND_UP
3.43,0.255694300135105,-1.40688444606547,0.500074764771175,8.76877513103527,1.08074339163061,2.51910918213699,-0.102854521401593,-1.50677440465574,-0.0764224817190951,8.65324109179907,0.690173229835213,2.89582427717787,0.127956994352492,-0.80123969378095,0.0707350335709581,7.13337418489311,0.48197967920955,1.97450042556552,STAND_UP
3.44,0.2275881275939,-1.38572107259343,0.486865746899078,9.00558849699179,1.38256789996506,2.59898231623376,-0.0818720668315655,-1.46118513436526,-0.0692152281378931,8.79900134312973,0.74320152921311,3.01991155346238,0.137565858987708,-0.802560611376162,0.0661041529550045,7.23231813550123,0.565222935798481,1.92637720121946,STAND_UP
3.45,0.207552467682794,-1.37044440279811,0.479299238709771,9.19509195585857,1.72016627708149,2.54675092096504,-0.111707501987033,-1.43446721790608,-0.0641821578604955,8.96191171576034,0.953738885416173,2.86454691423095,0.147278603930805,-0.812920991960767,0.0552759630920092,7.40670628856573,0.644496523311772,1.75068386315467,STAND_UP
3.46,0.180639939266498,-1.3754679688244,0.47669761274572,9.46039977559745,1.81086310413579,2.23393778076343,-0.16192870752736,-1.435554582839,-0.0813569579533348,9.09856712863248,1.13295586386896,2.95790032928264,0.143467653046716,-0.811857454067618,0.041920212398108,7.68434294758284,0.722725438101302,1.82343327720094,STAND_UP
3.47,0.148166857235898,-1.37228794681011,0.448381309243855,9.6190293822863,1.69603787307791,1.96202687890086,-0.292936123055994,-1.44522947078221,-0.102016440882721,9.10071867039631,1.05179281548105,2.68270721786126,0.13195148044845,-0.801863039901401,0.0279122745566076,7.83550194733268,0.689073605797794,1.73736653248005,STAND_UP
3.48,0.165056153115615,-1.36008095797455,0.418879215588349,9.71397105724858,1.28768081180186,1.78925188099224,-0.441101656301501,-1.42278028577316,-0.113139664324492,9.19855553897707,0.654973450185069,2.23264292150707,0.127137342812138,-0.798300852500706,0.0199583397171453,7.99664830466247,0.6674521244274,1.72114292013525,STAND_UP
3.49,0.172588292898255,-1.36885993250839,0.393212932381546,9.5804370688203,1.11788198247396,1.79901661733689,-0.54947082885298,-1.41284374639205,-0.13422036796484,9.33101781521386,0.229975300361695,1.87703694137178,0.113515480473084,-0.789278208374755,0.011860724417538,8.11626488804547,0.667605503223218,1.78156374303206,STAND_UP
3.5,0.179988652307096,-1.37933292454824,0.389278049954912,9.60465435533259,0.882977076561769,1.72788133445707,-0.549778903230393,-1.42439391473795,-0.161817087052453,9.56925492096515,-0.0129345078155627,1.4665411943059,0.0943304239924158,-0.791218695173131,0.0043313283700305,8.2722654243331,0.560067425887756,1.91089947138854,STAND_UP
3.51,0.168207333624489,-1.40436406703463,0.390338357412579,9.56215034255851,0.862848138165599,1.53978106769034,-0.496189229886545,-1.37248521164075,-0.185896959976165,9.77891983089063,-0.261748334219636,1.04203603645496,0.0697657083013813,-0.796690682458839,-0.0072245533223499,8.33361909933548,0.461360438171075,1.82781423355971,STAND_UP
3.52,0.171658518968066,-1.46194616335286,0.402412186571609,9.73837087152688,0.958630879250799,1.326068338217,-0.420467301899507,-1.3929925801488,-0.206115927512525,9.57285772394142,-0.200782643927913,0.916161025775023,0.0603190232533259,-0.805551135329627,-0.0225340494789516,8.34377191403478,0.335283884681826,1.59824432780568,STAND_UP
3.53,0.173614890442507,-1.45164195190616,0.403235784802766,9.78814220225507,0.68164588269181,1.1325297072501,-0.378117148378872,-1.39990331111661,-0.218847287075221,9.73496767350384,0.123235821458578,0.899076694836623,0.0904918848107339,-0.815046528003804,-0.0243224572464,8.322267389899,0.36345049928629,1.36474905910595,STAND_UP
3.54,0.184804994897565,-1.4622516185286,0.392248421612834,9.56051624185988,0.406219687759248,1.00381614721202,-0.367567277753903,-1.41714923730632,-0.225267887812714,9.60530317942204,0.623675854631057,0.846884547496152,0.106135433583909,-0.824867317795682,-0.0249854580766131,8.38235344755871,0.406975849551168,1.66654318949237,STAND_UP
