time,left_angular_velocity_x,left_angular_velocity_y,left_angular_velocity_z,left_linear_acceleration_x,left_linear_acceleration_y,left_linear_acceleration_z,right_angular_velocity_x,right_angular_velocity_y,right_angular_velocity_z,right_linear_acceleration_x,right_linear_acceleration_y,right_linear_acceleration_z,pelvis_angular_velocity_x,pelvis_angular_velocity_y,pelvis_angular_velocity_z,pelvis_linear_acceleration_x,pelvis_linear_acceleration_y,pelvis_linear_acceleration_z,label
0.01,-0.30985410343064,0.784524811033159,-0.263756227009921,9.68524799370475,-0.657752609078973,-0.499731171429035,0.338941904791324,1.12161275652761,0.236415554732914,9.58179401757185,0.91081553912971,-1.30630743793688,-0.0404301498666413,0.642727104272814,0.0005714635194482,9.59727054636444,0.459298299200199,0.239587793458694,SIT_DOWN
0.02,-0.329600994688737,0.854917885251864,-0.307581194722285,9.69638364204581,-0.372621115478753,-0.373448493515885,0.344059796371236,1.16262295527821,0.250544959911059,9.55534050350962,0.851590025852954,-1.17276502092918,-0.0401032971337721,0.683270105110558,-0.0137690187791051,9.39738707616072,0.544757777770293,0.462981150235191,SIT_DOWN
0.03,-0.328772839262518,0.934618625480811,-0.338049848814576,9.66244961944661,-0.173749438422196,-0.385736001541277,0.337478033272735,1.18464556877053,0.253216485198907,9.48359969766995,0.850554251458671,-0.904977664285345,-0.0309092833856566,0.692045232796862,-0.0240398797736904,9.39953572942439,0.659272920638355,0.372307213655732,SIT_DOWN
0.04,-0.331366553952707,0.959605042130554,-0.373114875842267,9.62617235966754,-0.236228138811996,-0.409767037164186,0.351316661009906,1.13965766699277,0.244887800260198,9.41498258056378,0.644738603385225,-0.91766528902466,-0.008864972970037,0.709410375432834,-0.0205013222196629,9.30790047598297,0.697073285252724,0.406773505956022,SIT_DOWN
0.05,-0.322603831185548,0.986566353713969,-0.38685050974362,9.76450951743653,-0.0620662606791675,-0.244857420051742,0.363884738537196,1.11769000150937,0.231570638586739,9.59319048478469,0.194054160530785,-0.715941598702681,-0.0149600468489005,0.724441621305443,-0.0110595815411494,9.27265524509601,0.724920633359936,0.590946788240674,SIT_DOWN
0.06,-0.311278890822665,1.03154873672109,-0.398951631125144,9.7967114493687,0.359448528444287,0.173734207670375,0.436420250590219,1.09543503625081,0.229032664702076,9.66432394906598,-0.131089724024757,-0.208656854185887,-0.0551780006217555,0.726008766551659,0.0016258371365915,9.24172278161458,0.72310228370998,0.636236153520171,SIT_DOWN
0.07,-0.328886869134396,1.01218441687977,-0.388983639292969,9.78276720944658,0.681630980794918,0.47960691908806,0.575466786839103,1.05922169270042,0.219965149764993,9.88701910711821,-0.425691686980025,0.0069225222052914,-0.0551780006217555,0.726008766551659,0.0016258371365915,9.24172278161458,0.72310228370998,0.636236153520171,SIT_DOWN
0.08,-0.463161866599499,1.0354856419617,-0.38508068759357,9.90378589634336,0.58021198266179,0.223311013577134,0.739942968498586,1.12262144085172,0.211635613426929,10.0334654363008,-0.613467772461934,0.135111630309881,-0.0961931399000942,0.737036860292923,0.0099658925992177,9.23000553733007,0.706660322060133,0.527434451942541,SIT_DOWN
0.09,-0.587090466151217,1.07902775621164,-0.372848548440877,9.83580377180957,0.704619760826238,-0.0047576764328485,0.846302255956678,1.14602109550699,0.21078372364694,9.80626484188088,-0.489921123488921,0.0636968164065911,-0.123404245799453,0.746401420187897,0.0124549475709058,9.21521240513037,0.759895470171648,0.366652472824351,SIT_DOWN
0.1,-0.704758764576714,1.089562342773,-0.33467815171249,9.81354414691428,0.819968947247381,0.255862665840571,0.973185566734287,1.19955469631235,0.209703218077203,9.89160072102625,-0.141182464260587,0.625788153699092,-0.113578020717872,0.75496578529014,0.0147984707969497,9.08663015606208,0.790936218156463,0.288812673624739,SIT_DOWN
0.11,-0.797067039468907,1.1021808266096,-0.304158574048882,9.77259096000191,0.870444455062782,0.464787298669869,1.02316072400031,1.20446615847142,0.190586543382553,9.57051818456397,0.435566890220097,1.18674632277167,-0.10522745704874,0.770470111737994,0.0120155382245912,8.93764217433798,0.793245416045997,0.522577781832093,SIT_DOWN
0.12,-0.884813785015113,1.13983320941689,-0.277658737819141,9.82059337144181,0.360281471851751,0.0910411852055436,0.988672190018388,1.13990934454022,0.160124738942436,9.31818202968862,1.02339871033724,0.675734002543226,-0.0883528529054773,0.774904949872357,0.0061053081196818,8.74902714539851,0.792734401990874,0.640995438567274,SIT_DOWN
0.13,-0.844869270761185,1.15568740779267,-0.260275802550131,9.62614576419049,0.365835086909945,-0.285980397323935,0.870815803477062,1.13797657495127,0.15937823011225,9.57529456341382,1.81672540384047,0.251242698522944,-0.0622574743461639,0.763078725933294,-0.0033590654548661,8.7615153011189,0.779021453285674,0.588777589394965,SIT_DOWN
0.14,-0.811912605670341,1.12811021397146,-0.257625555342991,9.61286997255218,0.216198184931882,-0.0869966210420396,0.739562703092042,1.10735387067107,0.131485191972058,9.51225762958259,1.64188422641185,-0.186107421785263,-0.0415898871383349,0.768156248990691,-0.0139797114183923,8.80217840771514,0.796850554684531,0.631589635056314,SIT_DOWN
0.15,-0.872844433608725,1.13943549349512,-0.256125832567772,9.69438035993855,-0.144622734692582,0.118814559285693,0.517781985040812,1.07360474134808,0.111545162263667,9.85653941477108,1.17133692158843,-0.523958395485852,-0.047609736347019,0.760994248969267,-0.0190888818863992,8.97848441533543,0.839144284204779,0.53029460298845,SIT_DOWN
0.16,-0.814249714577621,1.19711985145497,-0.244418775432319,9.87652698053822,-0.0228625935894206,0.0827115597287364,0.295040537953829,1.0768010945025,0.1268568502678,9.92926014766706,0.938130819620104,-0.212945612645,-0.060131103629515,0.763486574005581,-0.0232860061551657,9.28087043374839,0.891062023190406,0.42694112534118,SIT_DOWN
0.17,-0.693229514265874,1.21759442772774,-0.223333261200881,9.83774128328436,0.0122671909639454,0.738086680418833,0.25299405886736,1.0737714398397,0.151872104519789,9.96956670228714,0.518231870147889,0.266857095045191,-0.0745706801321044,0.782408367458428,-0.0171540225395663,9.62709701288612,0.974511861270776,0.358489714433208,SIT_DOWN
0.18,-0.660683931863918,1.12967012391185,-0.205755922520098,9.79086890489828,-0.148270822899238,1.33979248198777,0.301969895302085,1.06660362827776,0.173394834021681,10.0524759671058,0.0009233431306985,0.934158797671155,-0.0958740774312886,0.828160119515232,-0.0061216770900906,9.91619708298339,1.01104618706683,0.53264841367537,SIT_DOWN
0.19,-0.535985473130455,1.0742536742336,-0.204489699283356,10.1050521467443,0.0230472931829984,1.58995002222768,0.323399224704776,1.1248135109588,0.188651043224875,10.2741636191586,-0.0581128450485477,1.15357259350679,-0.154668684536274,0.872757957469617,0.0110547598231691,9.91127017355642,0.925556981314428,0.867221763831541,SIT_DOWN
0.2,-0.373565316876242,1.04450932424289,-0.219501057875978,10.0237087529274,0.0104696064311066,1.52793530332606,0.300410092135762,1.21916470029384,0.200760515350966,10.1474266723691,0.315686470212518,1.72798390284591,-0.199085416504632,0.915748092504361,0.009931631538242,9.63608957829303,0.903347412464826,1.02496334068735,SIT_DOWN
0.21,-0.226305316602124,1.02357859952779,-0.242111405949869,9.78909571084769,0.157363905139847,1.51602244128079,0.318135559024249,1.15495835623785,0.167297433797489,9.48631473036642,0.660267647583847,1.98368399649075,-0.210232725850741,0.924202464598735,0.006271813872939,9.17012088381016,0.697262031685869,1.22895403506084,SIT_DOWN
0.22,-0.049249423743131,1.0043014357617,-0.25829922061881,9.4900156845018,0.543102081971963,1.42905833680334,0.325462823573226,1.09587204142553,0.142999882419149,9.43034373567791,0.478950453610114,1.70471389176663,-0.206168946528247,0.894490786400324,-0.0064381870794864,8.81268570869137,0.655529155811965,1.18988296865313,SIT_DOWN
0.23,-0.0741908280020661,0.978703650581362,-0.271391901072197,9.51622011137338,0.306869405177706,1.59748820991802,0.161232390993857,1.13574719905973,0.140582588849546,9.24902872624266,-0.166840406184779,1.51504915587766,-0.189693254984907,0.869416142209311,-0.0250587941074861,8.51967807668259,0.577335432084541,1.25092381289138,SIT_DOWN
0.24,-0.169040820291119,0.996601704938732,-0.294877345838068,9.40433100530452,0.388477044735233,1.52701361524351,0.114347602098686,1.13447246492861,0.126456559342822,9.10189924720556,-0.609322857845739,1.2894551807207,-0.186299942267627,0.8482482799858,-0.0450724345698586,8.37058775091077,0.49712247319472,1.31465660469084,SIT_DOWN
0.25,-0.220235801242692,1.09238398131118,-0.297300714294901,9.23656943777591,0.87157628276607,1.87458893371909,0.285031151051298,1.12070887971005,0.117971830758975,9.15519397955636,-0.755331123691478,0.988941873667325,-0.189354149436201,0.811580275981242,-0.0643208508541918,8.36668044391259,0.445344895609177,1.05833325438155,SIT_DOWN
0.26,-0.308852403499954,1.1040767387746,-0.288728150761374,9.2082658922077,1.24951312408456,2.29215272495391,0.419478872933893,1.11857713189999,0.142984084823605,9.20282856837751,-1.08410977955263,1.75257919764627,-0.188109175191732,0.79142848500506,-0.0837868749682932,8.39331777866842,0.467635880351464,0.956516848102695,SIT_DOWN
0.27,-0.472118515334034,1.09908211936956,-0.310749189565886,9.41894508693536,1.05753536214299,2.0974551266289,0.440909850904042,1.17172327048831,0.133574826346686,9.27317421162698,-1.0114486453455,2.11450246642095,-0.167684584994222,0.805795769539885,-0.0851968954099506,8.51037225393984,0.551099099361529,1.25388437046786,SIT_DOWN
0.28,-0.481101972174073,1.17326241954797,-0.31365910258002,9.60247665346939,1.25830922427492,2.00850976195759,0.520204141326336,1.20896034595187,0.119111916517056,9.27475407842064,-0.406265693244699,2.10366667318878,-0.148242881260691,0.811309472957244,-0.0783810536583608,8.56400914729355,0.603517539000965,1.31173036439806,SIT_DOWN
0.29,-0.388014931527801,1.19636837352661,-0.292370311625231,9.48585772354128,1.05286454254649,2.52923535888476,0.575560386278853,1.15709988275134,0.0942818233163965,9.20256942523078,-0.310141601883851,2.54980379537902,-0.137928438803536,0.832762982172399,-0.0688986358436043,8.63955930393652,0.669851577396549,1.50943329422899,SIT_DOWN
0.3,-0.41382730539154,1.17582411878441,-0.276461776543469,9.33748633102468,0.830417846638568,2.95760834028135,0.630342371649373,1.15327799225508,0.0798317585239124,9.49597032748605,0.201822782247556,2.80936926250711,-0.129065200430554,0.849823655130966,-0.0596707812125589,8.66308560353904,0.76045288052124,1.63741481543402,SIT_DOWN
0.31,-0.48802145307062,1.085329801051,-0.255199905259453,9.18633445547759,1.16795796666741,2.71449666686383,0.676602517360016,1.18134898374381,0.0835811047119539,9.20129351463587,0.612789947929207,3.37536958975648,-0.114048331693507,0.855877101910775,-0.0556078261107087,8.52283240619821,0.870245904472472,1.40878509220562,SIT_DOWN
0.32,-0.523448434534397,1.02611004128272,-0.261565260967489,9.31121981553722,1.02494773704379,2.57746006117779,0.628572311292713,1.11645986916341,0.0244933740952076,8.78064087405598,1.14713342584851,3.80827875584826,-0.109105010028203,0.877110993629272,-0.0558393526830832,8.30070384780029,0.88181217869086,1.73552359124464,SIT_DOWN
0.33,-0.467316060677509,1.05008754973153,-0.266823937191395,9.19639186230973,0.542053310990383,2.76284529608873,0.507919508970678,1.12897653345858,-0.032288519133988,8.91164316740219,1.10474575811406,3.22521175097115,-0.109605079735858,0.877016859183243,-0.0647687194286909,8.03966914182502,0.838877792111834,1.6514131168755,SIT_DOWN
0.34,-0.403220735854612,1.00678444722114,-0.251784537223366,8.59647570679075,0.161052439102683,3.0023420919553,0.351137462661805,1.1580766728456,-0.0404226948325719,9.02843594767228,0.314155839531267,3.59390034856903,-0.106192331999109,0.861992283458139,-0.0823935554723034,7.8294062227461,0.715344494185603,1.61603720769965,SIT_DOWN
0.35,-0.358565667577147,1.0221925452813,-0.284162006105055,8.76902125911399,0.335828926425085,2.97175110574439,0.039473075969403,1.2692509062752,-0.0239485315977329,9.17099110562702,0.644183904813427,3.53782439380613,-0.108494911452019,0.847523654776475,-0.100811285008959,7.61824005386597,0.547131684608243,1.81675708201225,SIT_DOWN
0.36,-0.246894231348098,1.13815118436449,-0.34474772170087,8.90840107611039,0.274252717706539,3.06405630339292,-0.173207935399606,1.32235562033826,-0.0205775074164983,9.06118446703562,1.38087640213099,3.21541586776371,-0.127202252547804,0.824969667903483,-0.113780868650144,7.5885447660698,0.455766749973708,1.68152383805552,SIT_DOWN
0.37,-0.105334240305395,1.22122595738418,-0.414904705207648,8.81915197571853,-0.24262613175488,2.99012866854264,-0.337887801673441,1.2833348757637,-0.001838701581091,8.76958058091278,0.783399128111559,3.2123169260898,-0.135412918855828,0.822305156751907,-0.113271468766009,7.58522691527681,0.447479666848432,1.84351529318347,SIT_DOWN
0.38,0.0734564813776453,1.23756077024916,-0.444012398794268,8.62294236696048,-0.816059862168355,3.14917882368064,-0.433894644524329,1.23446571052241,0.02176006468154,8.86588489979716,0.588851422917392,2.9218171108256,-0.150017980379258,0.814233298840097,-0.102947557586756,7.64590359764582,0.455520173720919,2.16930155730986,SIT_DOWN
0.39,0.190032508104872,1.22735714025995,-0.454269216018783,8.57110069746462,-0.184891812284067,3.73838499130461,-0.449046089246754,1.2607780979111,0.0547294742904981,9.12153022825653,0.370581635617292,3.26651307865754,-0.153465090027442,0.788411282939295,-0.0872381550548282,7.80620239534852,0.529568997691442,2.35657189870262,SIT_DOWN
0.4,0.23912983069868,1.19555708284432,-0.452041224120151,8.71902373005729,1.22406878634022,3.8899377241639,-0.417819865966116,1.26956335901357,0.0852721871215106,8.8090963160131,0.0586920873241819,3.46024178043077,-0.136290870856261,0.768254170260865,-0.0799883355559234,7.94716085930543,0.660494901523975,2.38686627988569,SIT_DOWN
0.41,0.193089459621675,1.16382887055737,-0.444709135999578,8.87490929845444,1.97458275130514,3.90438921131103,-0.272117551828819,1.17833342749665,0.0614094172266648,8.37778447509004,-0.0788177875850844,3.51753197635539,-0.108767428334797,0.731759690557663,-0.0673163767960379,7.87473295957821,0.801786011858908,2.35264484575526,SIT_DOWN
0.42,0.0410465322341767,1.10075409523092,-0.409161738108674,8.66600016726921,2.40514514575724,4.11299476294503,-0.149415115523675,1.1673920664998,0.0347959279100268,8.46327600631635,-0.325482660182361,3.76591671816936,-0.0921609958235996,0.690947827503461,-0.0690893887635532,7.81928674484184,0.945151883473435,2.28369301612201,SIT_DOWN
0.43,-0.155833329372709,1.0839920338436,-0.370744175252129,8.61529956815265,2.82858645681388,3.42409197511479,-0.0532178616809417,1.18461836436959,0.0062399636515646,8.31428837040649,-0.691197267902809,4.09549969764122,-0.0912538687242827,0.653459546164771,-0.081743753726339,7.82357643152996,0.982765000638009,2.13667752754524,SIT_DOWN
0.44,-0.263589919808486,1.15289073533429,-0.356095238636942,8.43690685197309,2.6001900186505,3.55258624677823,-0.0136384048318451,1.1865865682996,-0.0270660463768612,8.4506310003375,-0.775837321939001,4.2724951975763,-0.0807750313865315,0.638379916474499,-0.0884370220101044,7.66492743751453,0.819831955163725,2.12300279663445,SIT_DOWN
0.45,-0.275135246066464,1.21742873113707,-0.354449837005857,8.42643235949551,1.58087112455195,3.56084628430468,-0.0648354705767119,1.25348355462639,-0.0752886796297085,8.29735209065773,-0.39952981017606,4.58013600677832,-0.0914460708978541,0.643269415612966,-0.0894955070065879,7.53909447691791,0.558464228487117,2.23356907365951,SIT_DOWN
0.46,-0.276758922527911,1.24830334877806,-0.340648032863634,8.21749792731898,1.09264501098478,4.10802937406559,-0.148529198675974,1.26534322745087,-0.154075641469816,8.30131086123105,0.0590054026426144,4.51867403808689,-0.0960996695288662,0.623856688200472,-0.0926293856095639,7.56907302044312,0.297141799032974,2.34579559721239,SIT_DOWN
0.47,-0.242385673368737,1.21562396250535,-0.320258319385543,8.18100733671217,0.734334446316163,4.52636913051607,-0.153506712867512,1.26498042249042,-0.197388796981973,8.53719701852158,-0.241087579985481,4.14110892665616,-0.117444782797053,0.595760760887544,-0.0925279223792104,7.64658304742544,0.239830058280129,2.3783424370466,SIT_DOWN
0.48,-0.203086309226203,1.14371201320326,-0.307874349621952,8.20215118563466,0.817149975581416,4.46351848940847,-0.180301609005408,1.32796640137493,-0.179486522974681,8.41569104236775,0.14324632321376,4.17766329672554,-0.137242027311594,0.579993849871377,-0.0894313591945434,7.88453157383418,0.19319123667859,2.61569576478117,SIT_DOWN
0.49,-0.100714329101213,1.08425770341864,-0.283834212431074,8.10694225539974,1.12520323575857,4.22541624003853,-0.205517978849924,1.358868588214,-0.151782444308004,8.22785319780187,0.63014793336877,4.04540022496586,-0.129501175339783,0.56003824705414,-0.0796330229195154,7.94648191713436,0.289423535400747,2.63122047334729,SIT_DOWN
0.5,-0.123967906950304,1.07948185214377,-0.270777383446424,8.22569820668324,1.52079284436765,4.28041294661132,-0.204225236978138,1.28127309547701,-0.129940723753662,8.06106033052667,0.402139541022786,3.87938153081209,-0.0930785814690363,0.545609444422208,-0.0732175950004492,8.03091072898685,0.368308268947766,2.89491351659624,SIT_DOWN
0.51,-0.141463900907074,1.0898117217028,-0.287499281647309,8.41113977748799,2.03817902970524,4.18349707887091,-0.204093862616705,1.26482041539813,-0.106725474590487,8.41080704461017,0.0731116363522136,4.34866516593457,-0.0860486203662551,0.525563512053049,-0.0684105917649899,8.20080138851885,0.611889527216981,3.14108544848803,SIT_DOWN
0.52,-0.109670818756408,1.16117865547333,-0.327991448648241,8.45193180829089,1.86093924929792,4.11066975828431,-0.168230879225942,1.23189473449883,-0.0738170593453396,8.48796139369138,-0.578593141553556,4.83441999817067,-0.0783306469623651,0.482889925416698,-0.0581393308970373,8.24866611094625,0.837976729600617,2.97823068002141,SIT_DOWN
0.53,-0.0958798112993963,1.24872887230558,-0.381357959610458,8.48409224688982,1.55634695674365,4.3793366347182,-0.170308043663733,1.20113629970783,-0.0548403723385791,8.54371216305698,-1.29885642396487,5.21291786265349,-0.0859856665266071,0.457134036984297,-0.0496158251585076,8.44346821554145,1.00409295850291,2.95181795132397,SIT_DOWN
0.54,-0.0793230586405985,1.25824799008062,-0.396928901295168,8.2837242259102,1.64972653365988,4.58053406951778,-0.1661604668275,1.12877699644464,-0.0894534641511043,8.75551283249088,-0.729515511527255,4.7406290228986,-0.105620859210486,0.433135828842035,-0.0455768962757583,8.50766111854879,1.10015238143868,2.90328593686943,SIT_DOWN
0.55,-0.0204617457557034,1.19812582684604,-0.373292163987771,8.22400723109884,1.62491445276135,4.6093291526902,-0.129844246304529,1.12074064362753,-0.111848070114524,8.80831170133607,-0.323744043743153,4.28732941411443,-0.0934893022560419,0.419408438717421,-0.0288439476502608,8.42551312845207,1.27920626349935,2.87460455196276,SIT_DOWN
0.56,0.0153077598357398,1.16918577386292,-0.349619942902533,8.13394488737868,1.77665565582049,4.27268700508833,-0.17813792657154,1.20536383608225,-0.131174173780685,8.72287439893175,-0.138890085350478,4.86742388897002,-0.0998604466601506,0.40693827883959,-0.0140238904992094,8.39400730348182,1.28921201396845,2.96050305577877,SIT_DOWN
0.57,0.0127459624581964,1.12811150702792,-0.348794684817998,7.78228858978806,2.08526640804919,4.67239662505225,-0.237198554278852,1.3067457113644,-0.138438532678467,8.59378018464708,0.297740713745494,4.82057180810296,-0.139840978343473,0.412083802685214,-0.0049159578558522,8.48330451271018,1.27852581854507,3.15754980491776,SIT_DOWN
0.58,-0.0280568742324809,1.06689470720927,-0.347791255474762,7.8257016808732,1.69695098715307,4.97669513116407,-0.242006154148157,1.43224733858632,-0.116016824552631,8.45404285750436,0.457496045558446,4.36133277574992,-0.174247258916278,0.409507451501369,-0.0116477300020419,8.55625068590896,1.21972828954195,3.44404302867102,SIT_DOWN
0.59,-0.0589742558608234,1.05597014216308,-0.381500506849221,7.8048561308935,1.03320636689044,4.76041440678587,-0.207765379452853,1.47674176729293,-0.0962898732543539,8.36889361604338,0.0625135713237126,4.58518728460582,-0.21992911807353,0.395658460304918,-0.0260898934332733,8.64082516949555,1.06567322982725,3.5885956301209,SIT_DOWN
0.6,-0.0830880353878755,1.03808613470235,-0.409980217662691,7.92295477383214,0.631988896118971,5.09853237783108,-0.166172108917348,1.48471912616246,-0.0925697065985426,8.40085883549181,0.0281709655559858,4.51331630062147,-0.236258350684789,0.388229421082665,-0.0525670356250868,8.79380963934708,0.888120379121151,3.81374431460015,SIT_DOWN
0.61,-0.0658682164285571,1.06617698823377,-0.40305178794029,8.1733095142658,0.395353129501074,5.53255461102964,-0.111697698840039,1.50736129111183,-0.0947277874119157,8.25724729243757,0.374400888304321,5.20330262384671,-0.252632300404144,0.355309736593384,-0.0761914270871459,8.89947065452034,0.71135126153049,3.88641694931152,SIT_DOWN
0.62,-0.0420508988260601,1.07981130086809,-0.365114510302169,8.38900931134023,0.60517922946878,5.49359183080018,-0.0615396962796526,1.50156780672654,-0.0981458471604109,7.9962762632891,0.641759352382999,5.72684671745608,-0.23964985922815,0.315036384847266,-0.105405101022938,9.00407620578191,0.612107747134351,3.81882845080148,SIT_DOWN
0.63,-0.0203181743116643,1.08897519333814,-0.292930553445412,8.59237539618552,1.00289560377673,5.40891491400897,-0.0660092114638114,1.44759925316708,-0.136540872513165,7.76472770863867,1.07820310930363,5.7841193375151,-0.20565304221102,0.266540807281531,-0.119683505599622,9.09092901791719,0.697653717331219,3.77378886714221,SIT_DOWN
0.64,-0.0826225294870138,1.14207359227178,-0.20568006767648,8.3098165452664,1.51564564517071,5.62611051269571,-0.071920206471874,1.42003871360885,-0.134132412685229,7.64754036357896,0.951229151478651,6.11991748716928,-0.213151508445338,0.215216689813116,-0.120560586595272,9.07683046023991,0.774032533144781,3.72018987246082,SIT_DOWN
0.65,-0.189729679795981,1.20303664104513,-0.189325635644063,7.71593189748653,1.93744578487359,5.60988112992539,-0.134821126443341,1.40088142095007,-0.122993642497205,7.08779814996092,0.835530363862646,6.57884854710245,-0.231690377713506,0.192275094439105,-0.115466928490976,8.96474482207973,0.873581157073715,3.86998352682505,SIT_DOWN
0.66,-0.287739766087241,1.21341840338421,-0.209177034191374,7.36907190768479,2.03864063874533,5.60405693320765,-0.230207595404554,1.37689743888497,-0.133122576431502,7.2564542651052,0.401266441833137,6.27617218623015,-0.226068388451343,0.162759723958511,-0.0892186458880092,8.91638748131469,0.80162310586184,3.81272121903821,SIT_DOWN
0.67,-0.33658948797963,1.19089897995041,-0.262463966199357,7.233615718965,2.26757484644241,5.46799540626318,-0.314000600743888,1.4524944261694,-0.123187514608645,7.47499015169797,-0.123220776890551,6.65407447686404,-0.20331289422048,0.139734646297321,-0.0734213809947995,8.76637344339007,0.701490940469827,3.78628230873339,SIT_DOWN
0.68,-0.256422885044134,1.10208659152765,-0.306013354379537,7.25150445731113,2.27381295396138,5.42775829083807,-0.321939395743241,1.4024970736491,-0.121215943025487,7.10455478343518,-0.435289997635216,6.85567004578401,-0.203591261336466,0.121720762456115,-0.0520473803106143,8.61560505244989,0.519937826359014,3.9527766884518,SIT_DOWN
0.69,-0.136673905703243,1.13372581422224,-0.313540179230555,7.63192689613484,2.32088308055789,5.57847830924919,-0.27096525675725,1.37065154000358,-0.103125753916742,7.12647978025581,-0.958919968521004,6.20537976582143,-0.198942004759452,0.0984717277519567,-0.0434697951077868,8.64580082464661,0.364558274308223,3.94697460946055,SIT_DOWN
0.7,-0.0997329440462649,1.19582395654327,-0.342929927481507,7.81433864637451,2.02541017416327,6.11939012021431,-0.169614993888041,1.41583036753652,-0.0701247829079909,7.01854239216157,-1.00654927056826,6.47889914601376,-0.159475992139197,0.0578626940004704,-0.0303765272759786,8.56436085411016,0.249547759149182,4.0142792014906,SIT_DOWN
0.71,-0.0696477452180381,1.21822686735125,-0.372008689911544,7.93172576632216,1.68019297818698,5.85900370571181,-0.0908351202156687,1.39708350858446,-0.0494203597147296,6.67999605301131,-0.703576522800534,6.71994770206824,-0.13858219057621,0.0416280146372681,-0.0181826588263531,8.7942660276465,0.20017613359402,4.30804617568699,SIT_DOWN
0.72,-0.042074034926791,1.17119032729226,-0.403515182216738,7.60808608789158,1.01543971216235,6.17196011033757,-0.0340334000840017,1.36805731632196,-0.050166294002068,6.67085143190519,-0.782811722336404,6.65708247999944,-0.0997087527362253,0.0177039365274518,-0.0014272752775811,8.89410679930516,0.252557233106207,4.25936849000924,SIT_DOWN
0.73,0.0366414651463905,1.08623400854509,-0.415134477540745,7.45606406869505,0.93234537173849,6.36692471060171,0.0054585797773207,1.40142572725271,-0.0310605084865084,6.92037308969666,-0.674954652099794,6.78195034843107,-0.0500563233279181,-0.0011327347253076,0.0041635821220451,9.07027129675855,0.242325665035093,4.22896566651212,SIT_DOWN
0.74,0.110784546300736,1.0930455534138,-0.414171578813167,7.65723244820777,1.20808969971734,6.49180726416878,0.0606310929081454,1.37161118496933,-0.0124896354163738,6.89242645679219,-0.150935424450044,7.08383518041201,-0.0097198328475974,-0.0045503953104161,0.0056682115350745,9.33534922500073,0.260050473192656,4.42347577669108,SIT_DOWN
0.75,0.131150411250555,1.06792153074905,-0.386564319167032,7.83262921615892,1.64834863321133,6.48643206298067,0.0822070645488461,1.34532080655765,-0.0009051357877863,6.88073722609602,0.310197415150641,7.09370614689628,0.0368741317300926,-0.0218197736464632,0.0039932382591717,9.60536520454111,0.332104848845777,4.44022352636933,SIT_DOWN
0.76,0.0887063318084076,1.16275262496092,-0.326136813171059,8.1104576979809,1.63717784894395,6.47661631704805,0.0558632307190599,1.37173426703865,0.016749226607762,7.01286348683601,0.603922860863155,7.23192091394928,0.073702405906394,-0.0232615822642308,-0.0053968362794276,9.79711040990926,0.278923679964241,4.55432553747721,SIT_DOWN
0.77,-0.0409282113765901,1.27163995989849,-0.288753353702716,7.92948906846081,1.41631789165197,6.67162688033259,-0.0173062482749785,1.39880963620244,0.0382078126919507,6.81023794052216,0.891676758985516,7.44053241536624,0.0933276958166995,-0.0470928755433144,-0.010013359956025,9.86546065402149,0.225914767237007,4.71066438455969,SIT_DOWN
0.78,-0.132316921562281,1.23251196812164,-0.270796312121267,7.64621330058153,1.53234696626223,6.37761262820123,-0.0631150519241867,1.34225774930035,0.0525604116440486,6.19358259126712,0.813167555997334,7.87636317335894,0.125516192177421,-0.116729367357376,-0.0171108811548745,9.7690423473371,0.208266234344239,4.67599480279451,SIT_DOWN
0.79,-0.141456797552098,1.11924082636455,-0.232065284698194,7.48933537796134,1.56520901849493,6.52417588918297,-0.101162424139088,1.2391474276152,0.0672375767468288,5.864360487006,0.624931759778067,8.12001215520714,0.182380271024214,-0.177688288970817,-0.0166201949186973,9.52202472295084,0.271319133390945,4.42213391115491,SIT_DOWN
0.8,-0.174654716011713,1.145870297063,-0.205310128008948,7.31585474544143,1.55906275651898,6.78607313924332,-0.146880495702603,1.15900188694442,0.0621447990077691,5.72964448840556,0.062830391438634,8.04518792571185,0.201505088750865,-0.204289614057948,-0.0011793878887795,9.29932008587774,0.325564986259181,4.405052359208,SIT_DOWN
0.81,-0.157251634220179,1.17733570987628,-0.187979862444678,6.74569869278306,1.04934701753209,7.12437990631157,-0.0753513040043448,1.12227029066837,0.0728340322219566,5.55257447499341,-0.553269728894247,7.74284120639311,0.187405281951493,-0.223439746267108,0.0374196337140629,9.1483090330982,0.339925971432217,4.44772256174715,SIT_DOWN
0.82,-0.0445291668424323,1.17658285843443,-0.18997205869621,6.39275541325945,0.722635124225781,7.2568419451813,0.0229380122056671,1.1038616417527,0.0851450201500056,5.41319358629616,-1.21454926645143,8.07238599449202,0.164872783385586,-0.257194127019758,0.0813320036733181,9.18564980827576,0.289463942092409,4.72327360659161,SIT_DOWN
0.83,0.0864444481778808,1.16090147205096,-0.184253081381276,6.22138479246769,0.516005204431849,7.43069763382894,0.123222821283107,1.11980859344894,0.0950661092157389,5.2618891109267,-1.26678112945784,8.22803013408641,0.150731260329178,-0.305070307161744,0.123713015001881,9.24944996904243,0.275756411330095,4.76828506407417,SIT_DOWN
0.84,0.234047612630117,1.17715785383075,-0.185728894113131,6.31600059569885,0.819000871573055,7.43868752992756,0.210863929420852,1.06279119304757,0.0912577995973913,5.24723092878886,-0.905174819470501,8.41504841279148,0.147141350524742,-0.350229437220306,0.159001194839285,9.36375115470811,0.322765537863314,4.74350025849387,SIT_DOWN
0.85,0.352826516939716,1.16909980967238,-0.18055069972087,6.38092253030257,1.33429712670414,7.64915362874949,0.238579460707053,1.01082392288107,0.0787290888010767,5.57065230593933,-0.581057521862281,8.15662375729636,0.171820743929109,-0.396768222070933,0.186837042047018,9.43011255010763,0.347085669161034,4.72097320477112,SIT_DOWN
0.86,0.385067132968443,1.14517752796994,-0.179780142905827,6.24622770040495,2.24409667687554,7.89500252492223,0.201108970162029,1.00095417701634,0.0937371225233621,5.69962424155769,0.399238625101648,8.07179122427886,0.198448748700925,-0.439651122054332,0.195564427861563,9.53568923041383,0.410627812709581,4.49671454469132,SIT_DOWN
0.87,0.324083508891614,1.1094077634036,-0.156978103758012,6.11713958008778,2.98293938964304,7.87573044363173,0.113690560573606,1.02490539256444,0.12272177508532,5.82554534949622,0.508147984133989,8.11786590982218,0.221434214854511,-0.471005800326537,0.184996588288989,9.5202203042453,0.613882490728789,4.37021973763891,SIT_DOWN
0.88,0.183154385683177,1.08369880490548,-0.133185671484938,6.01132233837125,3.0329576448533,7.84707829061841,0.0836410758599742,0.997132885075174,0.158477187364432,5.6605185273619,0.54420991262529,8.25360770856864,0.229481320565992,-0.491197388432252,0.165200917965504,9.62691048903608,0.732149641396552,4.62858709650907,SIT_DOWN
0.89,0.0842931388892218,1.01504347515665,-0.111182600365574,6.01128254647675,2.77625456157886,7.88052292202887,0.0375342670121126,0.943704879311681,0.162269308481617,6.13365208035574,0.305621895591359,8.29420456179985,0.223647636092938,-0.518286350113097,0.133069145909548,9.7484666201757,0.828810935701683,4.40365965488173,SIT_DOWN
0.9,0.0572586378316481,0.928555386756498,-0.110620515431636,5.92690057307698,2.49260967313792,8.12427812604251,-0.022402418514457,0.987756725904977,0.130269429522489,6.28603099263925,0.623429923534328,8.17355591670529,0.242464501411527,-0.556935327452081,0.100183751650741,9.9011731019981,0.940459923491007,4.31419329250113,SIT_DOWN
0.91,0.0489927141946706,0.916726485857697,-0.0970590335191814,6.20064199235299,2.1477302806441,8.05077085713934,-0.0330848705863058,0.917043550631098,0.148034094085886,6.02287177454042,0.632908783943741,8.5664807437375,0.242238570970222,-0.567729913100452,0.0780506211299022,9.98654707259061,1.03094313752275,4.31889984612579,SIT_DOWN
0.92,0.0573132059092669,0.917494981185036,-0.0752334598692335,6.35145645837677,1.61793043238204,7.8816025090798,-0.0356833042588606,0.860529784173458,0.177033120490318,6.37694885123904,0.368738383494959,8.43966671227952,0.221113309238885,-0.586745573782489,0.0555094984831062,10.1112467264112,1.08445076464127,4.31975969343564,SIT_DOWN
0.93,0.0774383276365282,0.907733002011318,-0.0704604649265764,6.42997928949608,1.45508145449327,7.99385417554758,-0.0476976070390535,0.845356496699189,0.176677997655214,6.44698503491024,0.0421131530297619,8.44409006577729,0.182773558950551,-0.604942399902814,0.0558777918320703,10.1953114441839,1.0432153203933,4.52478211038953,SIT_DOWN
0.94,0.141719980571274,0.895053220184899,-0.0760933805241602,6.42951895727969,1.72495700850542,7.83875059073871,-0.0173839966199328,0.803220252218048,0.152950842943998,6.79241131036838,-0.14515131117637,8.63936967252436,0.148994324606183,-0.625843630685175,0.068998499385793,10.2257915233269,1.00515855556203,4.33957012347174,SIT_DOWN
0.95,0.187414106623802,0.925169964705777,-0.0772610151234248,6.3553557488131,2.45767372980932,7.92519189043745,-0.057525405262983,0.860559469788903,0.107469684783883,6.92413000171047,-0.220813327131116,8.5800236781784,0.136219020728767,-0.621154835008346,0.0928065707840296,10.3229495059369,1.03380508007124,4.43309348995326,SIT_DOWN
0.96,0.163680267429754,0.95122608558292,-0.0812348763160861,6.34342345658248,2.96641262686471,8.33522168296962,-0.0131482752522428,0.87459046801389,0.0630619904273273,6.31023493792387,-0.128185674995647,8.73820103874978,0.122849922223748,-0.591965320541651,0.105608114508339,10.3883956134756,0.897324563585658,4.69424332914601,SIT_DOWN
0.97,0.101892435386025,0.972312336248271,-0.0992387655573643,6.55461820500508,3.1071053203935,8.36849311797253,0.0058103449268593,0.866885155516839,0.0450232755616973,6.03757397858808,-0.0727398951752372,8.71754675529373,0.098078657369114,-0.60385460098223,0.111610321919605,10.5927397241195,0.720179660532065,4.75133613853176,SIT_DOWN
0.98,0.085933460504948,0.960188878748784,-0.112293475705428,6.48139902496029,3.27779859656971,8.42944857985353,-0.0144467675328842,0.84854853715843,0.0403441911138384,5.70280782526901,0.336692969540293,8.84817073697665,0.0934513282370905,-0.625693752836837,0.100407041010719,10.7995160392355,0.64597132999654,4.61727888284818,SIT_DOWN
0.99,0.0516801255292299,0.985740163450093,-0.104058291008344,6.22525505908606,3.42052808897825,8.59056413861954,-0.073975025759427,0.819070299498636,0.0512724587116057,5.47732463440703,0.575545680333619,8.91099299186575,0.0988692566738374,-0.641100572461282,0.0946124446086329,10.8267818517789,0.627316838788924,4.46819963372662,SIT_DOWN
1.0,-0.0140607813487654,1.03152528372795,-0.110468814296439,5.68984761544857,3.12496306982629,8.9968719502085,-0.119307154242621,0.832203933350677,0.0611564226064216,5.37705283518488,0.570551639266244,9.05628448929213,0.082543735419629,-0.643913367559601,0.0773037621890079,10.7922602545561,0.70332199883586,4.31292418520955,SIT_DOWN
1.01,-0.0418588931411395,1.02599859297246,-0.123381839414343,4.98221060026569,2.93211372390321,8.79128794982707,-0.0869268171388816,0.760847433363927,0.087221493576671,5.15908663990374,0.416474882654851,9.31358572316489,0.071595132416292,-0.661244111493972,0.0619524269965382,10.6314980397702,0.689242251052878,3.95319502527732,SIT_DOWN
1.02,0.0227226058614839,0.870751869938031,-0.117218588437313,4.6547869222451,2.9432504101014,8.21928035159267,-0.0512567660044366,0.694124372536499,0.100728293712158,5.35301213412487,-0.0446776987217365,8.96377608494773,0.0660317903288055,-0.693904877994516,0.0575222162741412,10.2767750632752,0.747933567813505,3.42707427027387,SIT_DOWN
1.03,0.0796094939805097,0.769202642773915,-0.0835804690550295,4.67129865564062,2.71748363304308,8.20718057159691,-0.0886679572569543,0.742256282603127,0.0837347857369411,5.5534970811273,-0.217884702324352,8.90397489323944,0.0509329465229972,-0.703020452565109,0.0525537919742734,10.0413069196628,0.851758379270866,3.25537115159413,SIT_DOWN
1.04,0.0612057014515726,0.721971814082924,-0.0573032240287758,4.58284016217166,2.55976152740753,8.27659702820675,-0.181885404448152,0.762042940539603,0.0502173272989925,5.2925817709017,-0.251168317010235,9.17103956815827,0.0316244988442519,-0.705287474421176,0.0302443615542168,9.86266156976027,0.959508724705573,3.17201126649013,SIT_DOWN
1.05,0.0460196260204634,0.689333414688732,-0.0364220356164746,4.20567482981488,2.27733030794688,8.78874197452899,-0.258649855488728,0.766305248512462,0.0249747342295412,4.87704643028146,0.191250830484989,8.78505914082707,0.0185378102554823,-0.718700809504179,0.013899699325329,9.92465396679108,1.14906415423436,2.94096856382452,SIT_DOWN
1.06,-0.0158016764077365,0.674982547281502,-0.0499571351877665,3.83540174539704,2.46355419037976,8.94679859248714,-0.256144112695222,0.746766777264335,0.0410097485546966,4.21025036234066,0.702654852473634,8.86529278796965,-0.015303566386672,-0.735997952885968,0.0002802388937287,10.0041557759868,1.23474305765505,3.01475130955121,SIT_DOWN
1.07,-0.0480158790097423,0.662253844128631,-0.0594776098615437,4.03865504539245,2.52584898532138,9.00707008621434,-0.215137205820916,0.72155314750664,0.0805557723708727,4.02341679155924,0.893740264852717,8.93017200129253,-0.0437877327257306,-0.721559034400368,-0.0165702622017237,10.2222301876896,1.23575863773423,2.99238550944979,SIT
1.08,-0.0717509617576739,0.645331488979337,-0.0499067633252594,4.17293215897298,2.42466663708071,8.82008399793299,-0.242302875021571,0.721803451922966,0.101139708488433,3.66946237799386,0.521072942781159,9.40641436099472,-0.0674192895750025,-0.707244523966326,-0.0358226104998742,10.316805398639,0.960573479698332,2.89736209325183,SIT
1.09,-0.129222945107056,0.581555779700125,-0.0444736027381503,3.89917808478291,2.32689632067584,8.96532032887731,-0.261421431733586,0.655750619399533,0.112446675485966,3.27724627393016,0.499156686807475,9.48502493380658,-0.0810715572454378,-0.706066288489653,-0.0439212842327088,10.2304011836034,0.645125607114695,2.72151884879441,SIT
1.1,-0.171996138817084,0.506856557589325,-0.0445673803213425,3.82844928255071,2.27592366939931,8.87358587013807,-0.261741797152069,0.555752491082945,0.121332022895834,3.26516254432917,0.490732981505986,9.42900821183279,-0.0802044191762436,-0.708293759607454,-0.0393293264372448,10.0839655657805,0.38583985353401,2.39401955689412,SIT
1.11,-0.1849116296451,0.486908869390463,-0.0422888401816172,3.86251567474892,2.20910211562558,8.77246193735746,-0.236530774633152,0.486874284645505,0.13632210310588,3.02483287982516,0.118269552258229,9.16459253891889,-0.0642456067252649,-0.721056674764182,-0.0290663658871423,9.88352396178883,0.246502206785185,2.16683068008319,SIT
1.12,-0.181865239591265,0.453719694163782,-0.045138287633951,3.82857104389284,2.19902511669044,8.73550629079893,-0.268999683999526,0.435404544583411,0.160711022203307,2.77631671083158,-0.0028937256607381,9.39689609435084,-0.0582148747090203,-0.731803585420465,-0.0194631738218632,9.70030944337411,0.315781913288348,2.09357339044796,SIT
1.13,-0.165773088251164,0.426369275703633,-0.0467347030517269,3.87392584736814,2.45725231759432,8.66774789823,-0.29538436911321,0.392015911240124,0.175122950434462,3.18886441648443,0.0390113598876392,9.17654718446858,-0.0525934134190211,-0.728887610588238,-0.0048761394028311,9.67160846002408,0.345721775971985,1.85853307956068,SIT
1.14,-0.136935508059846,0.420743913486197,-0.0450404932557914,4.06372959800259,2.67125630400902,8.58767824446952,-0.284790368971724,0.398010102294229,0.219275015336534,3.53443926821652,-0.0999060556170694,9.15000148683912,-0.0237819374463272,-0.747409162830112,0.0007204289533498,9.59895140889,0.386992872716732,1.58943405178862,SIT
1.15,-0.118318140932241,0.401975002974716,-0.0406357595800595,4.38632083450744,2.60004806516378,8.54688809851593,-0.317892144970981,0.395570209825233,0.230414072815361,3.86423297101998,-0.299204927002744,9.11622487220775,-0.0101838438313587,-0.742514445876253,0.0149153733324958,9.58884357423462,0.385067848256717,1.49111768853202,SIT
1.16,-0.143500400918665,0.411348043250861,-0.0356942441311725,4.37249066342497,2.37387144791664,8.62504444199961,-0.275231894506885,0.414115864052522,0.238764425896626,3.97574615110834,-0.358215735728427,9.02792673497237,-0.0139440888760383,-0.730069333681851,0.0232736363745914,9.63068508188935,0.323654019230755,1.57581895004851,SIT
1.17,-0.167186731863039,0.39022539489368,-0.026265638915076,4.24441350599509,2.16999398276632,8.73702310390342,-0.24859268711263,0.419429462781202,0.241916949923329,3.86502840540628,-0.346128849843699,9.13744488842326,-0.0141267623882038,-0.721107522885978,0.0319682704306326,9.73385306949205,0.282228697935868,1.61049231124189,SIT
1.18,-0.165051069649358,0.390640770080503,-0.014397092342766,4.22868375474661,2.2038999946226,8.52091447173495,-0.230085254906462,0.377217283780962,0.226999260492674,3.76638074636928,-0.381814504667249,9.21481990239221,0.0031345920336708,-0.712614253557037,0.0461880907018065,9.88168504087054,0.234600529637841,1.4945954863325,SIT
1.19,-0.176075798481333,0.39449970283376,-0.0087453903770176,4.2418713227192,2.12851087046851,8.83820117833637,-0.227198802667403,0.341331148134847,0.19109548817373,3.94671862358178,-0.395614445936563,9.10636401141049,0.031468711068466,-0.700502593310661,0.0535034199404019,9.9286682321515,0.249878417903516,1.34714723513911,SIT
1.2,-0.180884631860387,0.383715760697919,-0.0084835846504178,4.19626031408938,2.02102555514677,8.889106031911,-0.207214901921414,0.33335859507386,0.155809843738977,3.90358983848773,-0.258120532728758,9.15801776871896,0.0534714568225098,-0.6799820058311,0.0508745829417139,9.98635518030233,0.392393187659533,1.23132842838571,SIT
1.21,-0.183171430630215,0.364679193744994,-0.0029477216981532,4.23057914291848,1.79225625911979,8.75925916455991,-0.181776243425451,0.333516703805039,0.141640911374561,3.69993702744086,0.154624777500444,9.11854210455757,0.0721081667004743,-0.687150021812992,0.0511941088823162,9.99859927234059,0.606039512341743,1.01379102528076,SIT
1.22,-0.170319185579709,0.357006972300262,-0.0092091588603915,4.20087544488813,1.32616239260125,8.66583114716927,-0.197872496282025,0.323753720053394,0.127849436851235,3.40896295018496,0.557284258792362,9.16172673777795,0.0799319855753584,-0.698522881025328,0.0495636651150743,10.0890555626803,0.748514183520718,0.98023552976795,SIT
1.23,-0.141161590696692,0.364062239609855,-0.0190067645539319,4.28090833933488,1.20289996224993,8.70365166216325,-0.205512320561823,0.318465761566079,0.10909978366144,3.36820836516532,0.658682346389731,9.25830197458346,0.0697562466882263,-0.681397392707618,0.0477493555418114,10.1549419132995,0.800798189389515,1.04107585355308,SIT
1.24,-0.108270156234294,0.389624506294244,-0.0287359179523714,4.15920042151556,1.21978813152589,8.8495554735529,-0.233054732742186,0.307437958039564,0.0753151844323745,3.35672749725064,0.597584054736294,9.54549779819776,0.0744222638300221,-0.656099409944172,0.0350791684344094,10.2525560711891,0.91561781467289,1.02584897446555,SIT
1.25,-0.0824008783385496,0.370434398465578,-0.0384550906913696,3.87046279109161,1.36093026436232,9.14731962321856,-0.285269923236996,0.285434121896067,0.0331194237947695,3.26403399655617,0.532907281602403,9.5748724696554,0.0876636156280733,-0.650922099014335,0.031299140065756,10.356780057245,0.94706205290229,1.0076807078033,SIT
1.26,-0.083992566587551,0.348797586839968,-0.0504456942998062,3.62875987688444,1.48544911206106,9.24600629316658,-0.30298659325014,0.254262171040491,-0.0122273994366343,3.20588750187451,0.284808112975216,9.46469225067489,0.103144516664616,-0.646036707068223,0.0288318196922662,10.33635886957,0.857756838912307,0.94459527877292,SIT
1.27,-0.074444919593624,0.324203220719214,-0.0613961508697771,3.45358362615968,1.52596581914162,9.26567148567005,-0.301571654909179,0.245312681055738,-0.0550541503959559,3.20658456871086,-0.0292455232932071,9.34596656360692,0.10126053406199,-0.639627640384794,0.0246861707796313,10.3743611035874,0.819404278970707,0.776433684234151,SIT
1.28,-0.0559642799361816,0.291982526440001,-0.059231048065103,3.09174946716556,1.44976918327988,9.24331492412252,-0.293395066040974,0.22872283176169,-0.0820855259383955,2.93089291756507,-0.281816524632452,9.31312666311491,0.0942375383217491,-0.626927237967226,0.0201504177538166,10.3569561661939,0.791156472699753,0.61233996949057,SIT
1.29,-0.0132475728286843,0.26598683762323,-0.0613486157755305,2.81291259598224,1.49390253297746,9.13317373998208,-0.280759954039113,0.21111092973549,-0.0846084844700969,2.85286383969213,-0.279713136313998,9.36890017862623,0.107316236885812,-0.636464515723752,0.0220199786766361,10.2836623892226,0.763447050876829,0.308300092475362,SIT
1.3,0.0123467626980085,0.271086770249616,-0.0644905751787565,2.66048048992751,1.71969419463539,9.06456750829531,-0.313848724179324,0.204870861392684,-0.0661300346991667,2.66840921204273,-0.486834837990678,9.34935758534709,0.105626581691212,-0.632864904137961,0.0204265255477884,10.2190406119432,0.755998140129135,0.259855854571849,SIT
1.31,0.0400576417149759,0.286495177913522,-0.0638686745336545,2.51449406954826,2.00079668797847,9.08361219607138,-0.334144588461287,0.201433177840619,-0.0444433775349987,2.56395153961407,-0.894321997448454,9.21265294119449,0.0891314950486003,-0.612242944090145,0.0163362805347371,10.1265614129189,0.789927798803729,0.19059526602763,SIT
1.32,0.0512462935362016,0.28442527139059,-0.0562114359374638,2.62255783902736,2.31766333724465,9.06755095361345,-0.352466984394567,0.188714638867307,-0.0403720771689228,2.51947930032569,-1.31514485683272,9.24176530871012,0.0711574145857112,-0.595987207577798,0.0121142131270602,10.1341321627558,0.862493135242136,0.0450158548689511,SIT
1.33,0.0230147839983828,0.268355127810727,-0.0533664962564306,2.70035061639985,2.71886614805293,9.06370958602764,-0.356902866125955,0.175922081483904,-0.0428076476304926,2.51449026767814,-1.55082375047437,9.24011791106286,0.0641981431163468,-0.589855085458847,0.0095957155880543,10.1854107135738,0.923502782134301,-0.0710575645062869,SIT
1.34,0.0129838332543225,0.236276759966078,-0.0517317202011693,2.62563161498009,2.8838941181057,8.82866681023512,-0.356902866125955,0.175922081483904,-0.0428076476304926,2.51449026767814,-1.55082375047437,9.24011791106286,0.0571492566397734,-0.572688213675226,0.007890516444165,10.087220968829,1.00421859462348,-0.257213753563602,SIT
1.35,-0.0158182736607753,0.174283676299681,-0.046593072499921,2.78135487865452,3.00507705352213,9.03876567344437,-0.278759070261838,0.170340394058156,-0.0580764612661591,2.73801115539989,-1.64162354884968,9.12342161566554,0.021658117341622,-0.550932934334595,0.0036564003329409,10.0649087766712,0.956433261645325,-0.214937208468674,SIT
1.36,-0.0672676944603652,0.147835972089236,-0.0525715903943538,2.89339059117438,2.88197129983514,9.04078451841214,-0.221213878978573,0.201837087724769,-0.0789517991852504,2.75213197924446,-1.54415969897061,9.24562292541423,-0.023263749933293,-0.536084633941031,-0.0014822705843448,10.0685462579203,0.910316830894369,-0.146569184436987,SIT
1.37,-0.146241902508837,0.161410831947245,-0.0641813975519546,2.9283617028283,2.60465438454999,8.95071122715468,-0.195957897368376,0.196588711753032,-0.085041266996508,2.60522983068169,-1.46290060258459,9.38054726444863,-0.0242691332529206,-0.525593082381971,-0.0064649171895674,10.0529617396198,0.869184450717303,-0.258296559531068,SIT
1.38,-0.176418738274703,0.157219754342744,-0.071804600904707,2.99068873541979,2.47114858850302,9.18079232714213,-0.198062091891656,0.180413658629683,-0.0792009680450913,2.64152707719797,-1.36040917661432,9.44541912305022,-0.0091685384162971,-0.528275043203944,-0.0106713803842094,10.0748981469337,0.815161400665382,-0.308655079134497,SIT
1.39,-0.203106621599038,0.140643807076042,-0.0792125479458985,3.02695011837791,2.34322517894648,9.17979151691108,-0.177350032547821,0.167676877900518,-0.0591860081479567,2.85604826244283,-1.14472603996285,9.37730082896286,-0.0149454515655771,-0.518010578091395,-0.0069548780724149,10.0998589470546,0.834941089520459,-0.44296365331613,SIT
1.4,-0.223257906905141,0.113866547567898,-0.0694932628706826,2.86665517269071,2.19140942938749,9.10962455633509,-0.165375632423007,0.177573475338028,-0.0339738597437129,2.95170954453908,-0.972019912857804,9.27591793594396,-0.0532463531049417,-0.485271808836683,-0.0124267506069213,10.0639880947249,0.81552130090716,-0.377751218824716,SIT
1.41,-0.204995315865073,0.0867672002904106,-0.0635243200450122,2.79114817242339,1.92831722196606,9.04462104654436,-0.167671529866128,0.204447507459382,-0.0172018036939942,2.85479282080406,-0.926508516436265,9.25176143557431,-0.07543335523688,-0.462245154168525,-0.0107346870951689,10.0743819764851,0.850361927403377,-0.544177653890779,SIT
1.42,-0.181854087674869,0.096843373166693,-0.0568220599680405,2.74968999073329,1.69184889621256,8.98815268432733,-0.19748798733481,0.195256663869935,-0.0087472353791635,2.55719347191207,-0.846988021915464,9.29597267048692,-0.0653484940131481,-0.446806096626389,-0.0053401595922695,10.1442460345858,0.822924423657875,-0.435336569141287,SIT
1.43,-0.162969250272248,0.10486867281757,-0.0514860955281579,2.78659775752278,1.47855138034603,9.03381777492889,-0.217624902450171,0.174089014453299,0.0027237752461418,2.23655424971998,-0.849618271524959,9.30059703737224,-0.05467856136972,-0.429792334873882,0.0049964402341394,10.1507290724417,0.794879818884825,-0.461493557747543,SIT
1.44,-0.133341391520587,0.109119495508144,-0.0513586376249896,2.86597802756354,1.43075035147177,9.12805658900526,-0.232663225389995,0.153480402073921,0.0183062470854189,2.18404743225738,-0.871333612371242,9.3422794430803,-0.039824646954232,-0.422106752275811,0.012839296503364,10.1192605597233,0.749278888597895,-0.494711689911909,SIT
1.45,-0.0887241433449909,0.122470489617218,-0.0565393407002027,2.86333295328116,1.49183789223089,9.11213894608174,-0.225565109600893,0.135246283967382,0.0140773404353061,2.47169625614648,-0.952202309579867,9.384634814289,-0.0336741994371954,-0.407395308396054,0.0160357544261027,10.1599351930159,0.704325925537046,-0.425219986649764,SIT
1.46,-0.039498500777065,0.107662151723887,-0.0638801581156279,2.95605442001203,1.56798563977147,9.17101004948497,-0.215909578884761,0.121459414279117,0.0139111440493947,2.64906851242231,-1.06523538621098,9.50155060057233,-0.0217563725133405,-0.397054836706445,0.0186448724089297,10.1736472804077,0.664102785087271,-0.535393714826206,SIT
1.47,-0.0026780535416489,0.0745604344427638,-0.0594505276266028,3.00899957099007,1.59417791361864,9.20222400023196,-0.213080029884076,0.118120043571349,0.0031932713229816,2.71076100077838,-1.1487820711057,9.58474176723561,0.0110918289795137,-0.392791941358137,0.0256480796880747,10.2163750244398,0.656205615953766,-0.708320242146126,SIT
1.48,0.0230841693179925,0.0348390713959404,-0.0615439939028138,3.14802351464097,1.62193302656941,9.26182044772058,-0.219793615654593,0.106177322630614,-0.0104774858517758,2.70273865252786,-1.15712210112519,9.49814674164609,0.0445856340195766,-0.389066108460735,0.021589244405667,10.2194469888246,0.679394944116904,-0.675901258821144,SIT
1.49,0.0331374359411416,-0.0204285961571756,-0.0496588137205149,3.45829664072742,1.64348572099219,9.27606386584182,-0.21687955041113,0.0971452990154877,-0.0163047955125577,2.74919356833187,-1.16088999897897,9.46144086981483,0.0618980740402217,-0.376370728822326,0.0219912889774927,10.2408800799173,0.65798227319736,-0.554451158497714,SIT
1.5,0.0170159502925439,-0.016847608936205,-0.0327714009683363,3.52232473866627,1.55887843108744,9.17659814966604,-0.217293450189003,0.0777496267604873,-0.0226849087529606,2.85301354643325,-1.48605471815084,9.34957904400122,0.0634286761744251,-0.363931213408206,0.0181176774385929,10.2361782001759,0.611689761635809,-0.560400725028844,SIT
1.51,-0.0088671117006895,0.0206651704642021,-0.0226732305520485,3.24036088640434,1.429625420679,9.05314294753644,-0.217293450189003,0.0777496267604873,-0.0226849087529606,2.85301354643325,-1.48605471815084,9.34957904400122,0.0646469972140018,-0.345157707392328,0.0183146319011005,10.2849716309866,0.567617260534657,-0.520866959493138,SIT
1.52,0.0087848200357423,0.0306854952269761,-0.011912773038106,3.03076360531807,1.5622915898454,9.15407984872067,-0.196076734607609,-0.013541138339,-0.0069496024928268,2.68377095937856,-1.84976506012073,9.30955621770317,0.0534681632980755,-0.320016150816332,0.0190106677657705,10.2554407538604,0.544812983910429,-0.43834642174741,SIT
1.53,0.0142841664302218,0.0270495121592307,-0.0032802381141803,3.03619111613953,1.70765466361054,9.29725902014267,-0.165186547768526,-0.0569921189286536,-0.0017945414665921,2.76385325288945,-1.95932322668519,8.92337924977268,0.0315170727196341,-0.295593794971083,0.025135265366882,10.2175692890026,0.550164704286769,-0.370518402151004,SIT
1.54,0.0103857196730761,0.0141191459659815,0.0044836918672662,3.24220476957762,1.79557951435559,9.24399783375465,-0.165186547768526,-0.0569921189286536,-0.0017945414665921,2.76385325288945,-1.95932322668519,8.92337924977268,0.0173933310145755,-0.26816282028248,0.026356663934409,10.2353698743656,0.588957748452286,-0.342099649262952,SIT
1.55,0.0215692265764101,0.0099581268754246,0.0124961991217671,3.39892452096872,1.90960421932887,9.17114010717142,-0.136624401988118,-0.0319540386347513,0.0015850976124605,2.91687252037225,-1.90735644377468,8.85211482568555,0.0016670159794165,-0.241795390838555,0.0265843842398711,10.192265276755,0.580236347176027,-0.287536860395306,SIT
1.56,0.025643771036211,0.0095453371355166,0.0197588113930938,3.49386349615627,1.99754260753905,9.06979989658128,-0.086626198515435,-0.0080844420526496,0.0062045681320989,3.15013226994279,-1.73126297453137,9.03035981520957,-0.0079307971053995,-0.225215177131132,0.0181440599207088,10.1437932799399,0.656310837616592,-0.227265279740684,SIT
1.57,0.0281429765569367,0.0003425745664592,0.0262296921388157,3.63634261310408,1.92668458553255,8.97138288163904,-0.0449271844601564,0.0118425704657276,0.004569937636017,3.26498255279606,-1.7021615407058,9.31988572392239,-0.0130174499468081,-0.212685996081645,0.0056226007969857,10.1163254925542,0.654127614419768,-0.270872595860915,SIT
1.58,0.0275506312560264,-0.0036228561265144,0.0290525634162988,3.50118193343643,1.78238100674257,8.94211838422863,-0.06692206942482,0.0147977625636121,0.0028708248360152,3.25782087282614,-1.73497082039725,9.49316361713846,-0.0023396277515749,-0.203783405477434,-0.0036787586734302,10.0046174436637,0.692204791195686,-0.375889830206612,SIT
1.59,0.0345143122229385,0.004696522457481,0.0215480432516077,3.48674041061683,1.7085313081227,8.93964613759265,-0.0696413299258625,0.0022484007085921,0.0029118886689847,3.17178026180557,-1.68930589658174,9.35361338879828,0.0048622516880469,-0.194636955477124,-0.0119307548012039,9.96337110095289,0.632665744759626,-0.369588224706159,SIT
1.6,0.0415914230995352,0.013932999195103,0.0128006535360172,3.42497162867386,1.60415466470718,8.98458408764,-0.0362958427454536,0.0050826459337994,0.0097703103563854,3.19900310950209,-1.66159158593891,9.21493697271634,0.0035014723240048,-0.183155361121198,-0.0143309376040428,9.94364138713529,0.658961978652519,-0.337515567486022,SIT
1.61,0.0590226454306151,0.0255593880828994,0.0112615642895243,3.42051221342442,1.58504461723955,8.99143012466849,-0.0232706451999875,0.0137868269640051,0.0204358050624481,3.30276646335207,-1.5746465355466,9.28758676928992,-0.0132873848980748,-0.171826975893995,-0.0135681200819266,9.88669388024306,0.614526523970232,-0.365138545366235,SIT
1.62,0.0761964247798118,0.0483297427765908,0.0026995874763447,3.29772026069748,1.5497193086748,9.06138673898449,-0.0256811666506677,0.0118108500270133,0.0252227850169951,3.28674387727782,-1.44716823285851,9.2942722362358,-0.0232398702559034,-0.161902922483654,-0.0109693854904217,9.83067605872282,0.636448290484614,-0.283406871858553,SIT
1.63,0.0929315664443978,0.0585062666939763,-0.0095555176042449,3.37407024635647,1.56203138567443,9.19531289812705,-0.0128948381993929,-0.0039564597485712,0.0236610491134377,3.21554321526082,-1.33645850520351,9.33729274270978,-0.0246313709545306,-0.143530500622177,-0.0076016652428449,9.89325501928339,0.665426458307682,-0.183732217988266,SIT
1.64,0.09099437920271,0.0586811662978144,-0.0093405494061034,3.50966446186258,1.65348052713011,9.1875207279721,-0.0104070139328991,-0.0077539797080593,0.0237173126285704,3.12072584936668,-1.2492398519774,9.26562835929391,-0.010320447188282,-0.133633846054444,0.0019061303104682,9.92277334558513,0.656286296436449,-0.263559604332082,SIT
1.65,0.0963800654733701,0.0445946947115364,-0.0047055607314236,3.46040754792961,1.73472708748664,9.15411904019831,-0.0159285347555377,-0.0262625535966376,0.0246592749097841,3.01866169515546,-1.23862925399966,9.24284625649267,0.0270656804883602,-0.122483709918932,0.0109782648532608,9.94937646795107,0.7526340421326,-0.37874245986345,SIT
1.66,0.103001676366598,0.035928794134114,0.007829466624881,3.46503823749271,1.85355343010769,9.09561892695871,-0.0097774198124201,-0.0365562610348134,0.0231978362288411,3.04810818239183,-1.14844344230409,9.19566504247443,0.0270656804883602,-0.122483709918932,0.0109782648532608,9.94937646795107,0.7526340421326,-0.37874245986345,SIT
1.67,0.0955429294392981,0.03630746242255,0.0141818214243531,3.47187757759515,1.96105848706118,9.17003260616703,-0.007870375038873,-0.0320479877153696,0.0236564627132644,3.05755440620305,-1.17090138059788,9.25999401843986,0.0235877777235444,-0.0993667637122815,0.0157800121452106,9.96305657151313,0.811528932880207,-0.304215316635386,SIT
1.68,0.077484982920198,0.0413845014260124,0.0244412213155445,3.47090114125665,2.0717420257695,9.08853477869119,-0.0050958200053344,-0.012936215818841,0.0162613606676445,3.29371490285854,-1.16443994237734,9.1653357318415,0.0200507911755239,-0.0870036396003442,0.0139893607054173,10.0081053085909,0.840317285780682,-0.288950765333729,SIT
1.69,0.0649743820178256,0.0456389297268193,0.0319445421843371,3.4646167633215,2.05407012729442,9.09569506437877,0.0057513793777359,0.0011906063418484,0.0135839369273896,3.24348874974675,-1.11947482141194,9.23937414501561,0.0138011509642245,-0.0797087611601602,0.0124504732421542,10.0175298480408,0.810626506461945,-0.280148745450723,SIT
1.7,0.0669973760939686,0.0438995277589124,0.0440627422853445,3.42588242138022,2.01071126469518,9.09246613711405,0.0012751745438923,0.0193872375240132,0.0017444770097742,3.2046022282829,-1.09142694916553,9.32531403066868,0.0039288654039424,-0.0678434655061847,0.0073506761623571,9.97213867881467,0.77927494923821,-0.312257616698933,SIT
1.71,0.0630377174566575,0.032865557035498,0.0417124803899945,3.32862435903264,1.96368208967472,9.05363208075194,-0.0037450252050502,0.025406156201752,-0.0098082060416795,3.02755494434782,-1.09749860876962,9.25054705600321,0.0045752805799319,-0.0708543645184789,-0.0068702728532343,9.95407203706309,0.749911362358557,-0.322874944962727,SIT
1.72,0.0522682397712502,0.0385074997838272,0.0366880183430154,3.27546803752789,1.88388014693274,9.0118983433688,-0.0063250231533123,0.0341839833290398,-0.0204271844004601,2.99227860334531,-1.22262607560261,9.30567382449908,0.0017855086357437,-0.0667546703779185,-0.014288520358964,9.93309305098825,0.763784822366965,-0.331737528530878,SIT
1.73,0.0575265562385773,0.0376898165674656,0.0262720622327951,3.1891851498859,1.81921504838603,8.92264912507746,-0.0041985155693153,0.0403071586333825,-0.0250123071487794,3.09610685387723,-1.27509490714138,9.31564665952258,0.0158858543228188,-0.0632763152193312,-0.0160669688278828,9.8732070578217,0.68444214323175,-0.541195462829543,SIT
1.74,0.0775350976199121,0.0456269882725304,0.0084402124259892,3.14185583395808,1.85697200557232,8.92561638991113,-0.0141205659009126,0.0423440356532757,-0.0187523438214768,3.16458347901566,-1.28601362745589,9.32443468796453,0.0294029992521619,-0.055847644899874,-0.0075532818740612,9.79182667617913,0.726193917431469,-0.642473580575984,SIT
1.75,0.0987244027621708,0.0602235852173268,-0.008285927997163,3.11978731561844,1.87573065409367,8.95343233653098,-0.0190910822769805,0.0228724872332219,-0.0116203221180877,3.19880215112387,-1.25592619179052,9.33155917706517,0.0081660775415853,-0.049541661534575,0.0052934764453684,9.7812747196952,0.733539396026749,-0.491950318322973,SIT
1.76,0.114329132788588,0.0645578951885851,-0.0228656652155804,3.15030262581907,1.96372520616081,9.05277826729528,-0.0168204749655101,0.0043283660302266,-3.80106661291e-05,3.16035195204549,-1.26409409892949,9.20586035055223,-0.0278193692961375,-0.0395213209854117,0.0129322813980119,9.7850990619998,0.788708504795386,-0.475663613997159,SIT
1.77,0.125325612386102,0.0628703011474622,-0.0283154640501633,3.17679601100518,1.92056076472352,9.13754922260927,-0.0086419019355075,0.0001545942416371,0.0021638518641034,3.10434986717978,-1.28753972241967,9.07669927158457,-0.0607516401598902,-0.0429372998260353,0.0190478598480986,9.80288583664651,0.816684048429995,-0.475739284397953,SIT
1.78,0.128312281729565,0.0576542266734868,-0.0245950550689546,3.17980798537668,1.96250149635289,9.15249587473526,0.0030164852100991,-0.005544332948154,0.0005305362245521,3.03016480597663,-1.34512538282306,9.2294431828711,-0.072137668447175,-0.0383911194245901,0.0253917599447329,9.78902317759126,0.841488378571043,-0.462176234342087,SIT
1.79,0.140950978908357,0.0650588004844628,-0.0271522584515127,3.23556562768111,2.04222613773699,9.14272921350398,-0.0006081988075759,-0.0145279313256565,-0.0168825482293941,3.02493370533934,-1.34828513097961,9.28327150623372,-0.0813288360821514,-0.0298120944686386,0.0282287448978544,9.7987303754431,0.810874706112726,-0.447673001017884,SIT
1.8,0.136978276447981,0.0645068552343804,-0.0254956450689978,3.35051097532249,2.19631210226725,9.22703274745763,0.0071904324021781,-0.0095662200107532,-0.025041185885791,3.07565617361191,-1.30411484488011,9.34653716824552,-0.0885380910191066,-0.0197314130448948,0.0171922041455681,9.84141016000485,0.751535270664011,-0.36001477637868,SIT
1.81,0.129016094180774,0.0514051505043211,-0.0215221052423848,3.40049486870707,2.26945717286007,9.19412073532917,0.0193158258329532,-0.0112497457386297,-0.0310426527866497,3.09755554086274,-1.21338048860673,9.35451868353692,-0.0822937441699845,-0.0130009436375991,0.0080327203875438,9.86768869128055,0.653436991553539,-0.362733202483142,SIT
1.82,0.111087098745286,0.0352712657663808,-0.0137337067968976,3.44596144824808,2.33462330850624,9.13814465287382,0.0367639530187126,0.0047427616123305,-0.0272132477279183,3.07145978891532,-1.0914522964229,9.3042561330365,-0.0631203618642213,-0.0076962930254397,0.0023178085774004,9.79602238842772,0.590143977855546,-0.323049086566286,SIT
1.83,0.0895465133954712,0.0198113479992321,-0.0034210798687957,3.43718716205156,2.37711620567031,9.07640863674087,0.0398674178551839,0.0073447888234626,-0.0226032299945441,3.02137769864388,-1.10088830402349,9.28720768240699,-0.0396856409095819,-0.0030676641264493,-0.0083060628032531,9.83733133582421,0.564890704576509,-0.319569646717874,SIT
1.84,0.0729578055060568,0.0118603992268209,0.0007927654458197,3.43227447431688,2.33060437591089,8.98665307979793,0.0289227647608433,0.0063267761154798,-0.0181744357947265,3.05976986090552,-1.17893478750528,9.27602679475835,-0.0258624600623926,0.0028660205462117,-0.0068740293707365,9.89651965879649,0.569328590620542,-0.311975485173349,SIT
1.85,0.0642446206875817,0.0170026259886616,0.001033225603053,3.35118678220833,2.25041090594331,8.92669951876891,0.0253124856167653,0.0062542553711165,-0.017539348189022,3.08219393122188,-1.22986658816999,9.22066835912889,-0.0075526925281094,0.004728121465319,-0.0096451506262824,9.91181227904751,0.533463997943986,-0.416063793307709,SIT
1.86,0.0493197759054647,0.0082513116996002,0.0007693745552866,3.25921256299437,2.21787270338948,9.01311563254677,0.0143455465011916,0.0044475759120754,-0.0188320835249856,3.16728365628893,-1.28508833772547,9.19425126896391,-0.003669714074376,0.003623769610271,0.0003655069921689,9.88276976541892,0.543184109343722,-0.349016171377108,SIT
1.87,0.0400326292842362,0.0106482924052525,-0.0029231427996759,3.26134979554311,2.20549472540995,9.04264362293093,0.0130650712906208,0.006734205641284,-0.0118782843910157,3.16287240903078,-1.34506981223888,9.33906084297487,0.0075881020654735,-0.0008189157781137,0.0105660186472144,9.85655951103672,0.509724798825108,-0.284169944394124,SIT
1.88,0.0336836550656906,0.0180448182138416,-0.0010991531729299,3.25402988754922,2.20227578300274,9.01957085939231,0.0071715139937453,-0.0072242695043837,0.0003770381198468,3.21220659499521,-1.4075779437188,9.36856954212667,0.0072011080820238,0.0017131538183173,0.0303265899419009,9.85655512398039,0.561782741058393,-0.22907937485519,SIT
1.89,0.0296877495424348,0.0171882907391922,-0.0016100010457113,3.28186999399337,2.20720258202361,9.03733890133425,0.0071715139937453,-0.0072242695043837,0.0003770381198468,3.21220659499521,-1.4075779437188,9.36856954212667,0.0169075901328167,-0.002883007904291,0.035552640234232,9.7878791409887,0.583357771086245,-0.253727742648954,SIT
1.9,0.0270964839359452,0.0242246166525778,-0.0001686701386991,3.25649327792798,2.21439864173894,9.04221781394407,0.0129411139319839,-0.0272800073495473,0.0081428360445801,3.19719744750636,-1.34933629378048,9.36986684083916,0.0256155408651731,-0.0026867407697272,0.0399931962375402,9.73865001412037,0.623591984336821,-0.362355433746888,SIT
1.91,0.0314321688521493,0.0266121253748557,0.0033788572028891,3.30716800527019,2.21442473716907,9.05548322768211,0.0283034562605515,-0.0386802964749196,0.0107225531220441,3.13627425026132,-1.26066337377226,9.31213965729128,0.0309175881764703,-0.0013055529438546,0.0415996786206421,9.78161027956335,0.691819369235522,-0.336335946057161,SIT
1.92,0.0252092774803317,0.0238153703511852,0.0034163334916929,3.35227612784072,2.27827776273524,9.1040192743907,0.021909910276461,-0.0308059195457213,0.0114978179377916,3.16081821534742,-1.22926741314536,9.22758117337922,0.0327743600650691,-0.0026470816578539,0.0394552595490883,9.79291750685949,0.757411826631842,-0.296978416083826,SIT
1.93,0.0243881442415668,0.0198480517637828,-0.0013974581732282,3.35329014628761,2.30353663477717,9.09666482728365,0.0110492426663913,-0.0178846277997577,0.006911114720371,3.03206803814632,-1.2539029459074,9.17735415443791,0.0273376723070572,0.0012636747667379,0.0293046312698953,9.78089191131283,0.770357766628394,-0.367590450412619,SIT
1.94,0.0167700992657597,0.0097457212174856,-0.0067055993236692,3.45175994823226,2.29377329473752,9.1002049165365,0.0219816661000853,-0.0176820753563989,-0.0032474350019468,3.0204232012221,-1.20538801500042,9.21146678426646,0.0249506098380157,0.0156321777101165,0.0175647802928051,9.77811990058923,0.680159208726257,-0.302147180541669,SIT
1.95,0.0058660315189445,0.001851558409053,-0.0064622016061061,3.43025967958894,2.25202530820911,9.03950310113993,0.0251484659637203,-0.0019387446949881,-0.0133867436781957,3.11773390070058,-1.16491075638093,9.21382339909415,0.0160659609778869,0.0197822401998138,0.0084967455292429,9.78095027188072,0.636661173977706,-0.302364628887091,SIT
1.96,-0.000803584876438,-0.0138908425582271,-0.0121262578224094,3.37766305455982,2.21571360574463,9.06389779302036,0.0141202636504717,0.0028197853089819,-0.0137987556977457,3.10216827599593,-1.15900368426653,9.28957060633592,0.0176612244165896,0.0149662201971451,-9.84798988225e-05,9.76307517691365,0.606938921508526,-0.304453737317239,SIT
1.97,-0.0039768893953081,-0.0096043597229465,-0.0146145967785192,3.36654696919505,2.12381429636695,9.09366643111897,0.0194724730002622,-0.0007656292402709,-0.0098074935689638,3.20799785867407,-1.12602275849073,9.27078557664389,0.0133962694000338,0.0126982634135985,-7.3559076934e-06,9.75203887826181,0.591403756055824,-0.287923807333912,SIT
1.98,-0.0125363722670362,-0.015832715696129,-0.0093828762882988,3.33503813186837,2.09837212990421,9.08302516483268,0.0187396009395953,0.00018060717659,0.0004836122298947,3.21563260221007,-1.20419619464956,9.24490701748255,0.0096484166330881,0.0114670036330894,0.0033480962743391,9.74519019420993,0.631649712801743,-0.250797501074522,SIT
1.99,-0.0172228455934073,-0.0232829090274051,0.0044030317827929,3.28385200158182,2.06022330551714,9.10735698468115,0.0117180004093577,-0.0041076191922731,0.0098091110913975,3.17166957711222,-1.18380044179041,9.21914079137125,0.0081885498807207,0.0050728524288203,0.0108266225262531,9.7150592132151,0.672231511803069,-0.269104305919128,SIT
2.0,-0.0214448772531958,-0.0277108300821717,0.0165766324388331,3.31580984472475,2.09959461829825,9.08705825725739,0.0117441539856149,-0.0172320553094,0.0163151179981123,3.14356847307574,-1.13232269242591,9.32884357765214,0.0084468562523606,0.0085494287524327,0.0172816939548499,9.75530263305933,0.731074473179757,-0.295373211224882,SIT
2.01,-0.0381135680234281,-0.0272255215994013,0.0327470697003263,3.34824782463407,2.13754583774797,9.06691682869456,0.012651852964301,-0.0149768813972929,0.020663136206833,3.15300452399233,-1.05539288329099,9.27902362666294,0.0073276022235532,0.013450860236075,0.0330426848461302,9.74175975030901,0.755278967333973,-0.277303927961738,SIT
2.02,-0.046461223319635,-0.0217293252796301,0.0427973022737264,3.34824415897709,2.18830916934325,8.99903821689824,0.0167713378450429,-0.0093035669950774,0.0270910924410622,3.15387907287424,-1.05478079308583,9.27879600627543,0.0026295506752021,0.0179657594860768,0.0316965897010152,9.72407198948787,0.777092108150776,-0.224535891194765,SIT
2.03,-0.0545797829155784,-0.0150169186499206,0.0537426324028839,3.35051429688749,2.07212756856603,8.97921009152817,0.0127083499404066,-0.0076185203345479,0.0190072067685061,3.1453779113476,-1.07680570789379,9.2542594703836,0.0029324650817545,0.0194323132468096,0.0294156209261219,9.75766323863166,0.766306510803832,-0.323507167037083,SIT
2.04,-0.056833262555008,-0.0064507863864267,0.0582254140402006,3.346639885921,2.01915834388188,8.99496553633707,0.0104120989780695,-0.0030192229747866,0.0081775332032733,3.0934687677919,-1.1333343638202,9.27782613621355,0.010132099117039,0.0204178264496375,0.0249806969861585,9.77007412440485,0.693065176006882,-0.306202937645282,SIT
2.05,-0.0569747998114288,-0.0067639935836518,0.0560880981844823,3.35137350458207,1.99566095228393,9.02609171869613,0.0035373209877752,0.0058233119100736,-0.0054927484666139,3.13409582439502,-1.14156904776375,9.2710489407797,0.0025917496318888,0.025155049096905,0.0153343105158076,9.78664845781328,0.622207257256791,-0.322826184745431,SIT
2.06,-0.0483065476011288,-0.0113243605951535,0.0524644122966692,3.37669997972298,1.94490844301047,9.0596301895518,-0.0123359892990333,0.0116275210381168,-0.0151383909232969,3.11358483100326,-1.07386304249546,9.24009406853169,-0.0144728436963572,0.0301628837493163,0.0050798032046996,9.74916899796066,0.573127229724275,-0.240063557307684,SIT
2.07,-0.0318733377356651,-0.0142129643647398,0.0421787703228433,3.30528439295603,1.89105115319015,9.11963757510993,-0.013001582693753,0.0117730138806915,-0.0188135653061913,3.11467589084248,-1.00143882784592,9.2449876666931,-0.0294675192998184,0.0333965370995844,-0.0017727017610027,9.74500692985485,0.517088622105026,-0.257578271555366,SIT
2.08,-0.0184971692315537,-0.0241869946626143,0.034405262477594,3.31371170997282,1.85447813736548,9.17983798358036,-0.018548023706679,0.0145553142595909,-0.0120371497723765,3.12441772911979,-1.09287449533859,9.25197231299138,-0.0308898263390382,0.0220390903628469,-0.0078501351816055,9.73391851910203,0.502159824936391,-0.239469943667222,SIT
2.09,-0.0104071098794457,-0.0320866178930063,0.0302382724161595,3.27010087034846,1.94055027075711,9.11368584135216,-0.0325244517733586,0.0051811427634018,-0.0073500641510943,3.2159831317002,-1.20302235340597,9.24493793325435,-0.0291685064060685,0.0119297978577586,-0.0079036793347658,9.75191106952668,0.532229968851327,-0.233938191268244,SIT
2.1,0.0073373134649451,-0.0285927932206241,0.02654956830308,3.26446423831331,1.98901649451889,9.02219693147274,-0.042536299975208,0.012998702381506,-0.0059383711598799,3.20949602663993,-1.23929410493176,9.25310008011858,-0.0383540176581961,0.0005543322166799,-0.0040913155468602,9.77159385689515,0.551861272746791,-0.316820047522273,SIT
2.11,0.01452187166722,-0.0191623469863156,0.0198974092709331,3.32315427241235,2.04902504942432,8.98909756383993,-0.0312419675689361,0.0114357647407149,0.0008686766824275,3.155687344829,-1.27019269716788,9.32236272423691,-0.0247435697458611,-0.0042182926605184,0.0072441353457916,9.79644125166294,0.594776686812749,-0.29409600391083,SIT
2.12,0.0133720611624152,-0.0048294811306001,0.0267055202421304,3.36032600339763,2.09745295086877,8.99136157956554,-0.0113236978229508,0.008915741000528,-0.0002150739083678,3.16666844770325,-1.23580125578931,9.25997865856658,-0.0196581488324437,0.0035012411872181,0.0129655838297613,9.8135783179182,0.65502730864949,-0.375820713165927,SIT
2.13,0.0133720611624152,-0.0048294811306001,0.0267055202421304,3.36032600339763,2.09745295086877,8.99136157956554,-0.0113236978229508,0.008915741000528,-0.0002150739083678,3.16666844770325,-1.23580125578931,9.25997865856658,-0.0196581488324437,0.0035012411872181,0.0129655838297613,9.8135783179182,0.65502730864949,-0.375820713165927,SIT
2.14,-0.0004707431288245,0.0045055817529312,0.0225199877482346,3.40857789438307,2.15823174799373,9.03962723904923,-0.0089984727232253,0.0108765492942949,0.0032399271454716,3.11593662584749,-1.2506194905803,9.24258044919483,-0.0087549394732759,0.0106751711422387,0.0187460070973846,9.81109275592465,0.695689700929867,-0.373187249061367,SIT
2.15,-0.0098668746961814,0.0060225289339976,0.0200851441914971,3.43210575030295,2.19189009705612,8.99740567356254,-0.003723945668781,-0.0008695984231259,0.0031607966825034,3.1049709357438,-1.18499488458782,9.35569902029918,-0.0038799899925677,0.0188312383416158,0.0189295353632643,9.80698892033352,0.692100876602456,-0.337482153751126,SIT
2.16,-0.0145816923130109,0.0009356874833649,0.0202936558664065,3.36708764088152,2.14034188421891,8.97698981012348,0.0007202216802774,-0.006709459193182,0.0028024014217604,3.11771460423686,-1.1784792930484,9.24729990868854,0.001772204512689,0.0226298885428087,0.0143629043959639,9.78912326466092,0.715383335984574,-0.284159436423591,SIT
2.17,-0.0184152259943367,-0.0041009242658905,0.0176370399096619,3.27928536622385,2.05251011523896,8.99910310220288,-0.0058737730285083,0.0057344773365647,-0.0016076094583482,3.15165018011587,-1.16426294033681,9.25765334202221,-0.0029762446236237,0.0268453474449269,0.0039241301154936,9.79323639291802,0.623989049755029,-0.310704995770354,SIT
2.18,-0.0154123708630984,-0.0024254356547558,0.0120786702321138,3.21495732418282,1.96009419105188,9.01624246162824,-0.013941221997344,0.011107727676039,-0.0034726332936046,3.09044983006016,-1.11561152173713,9.27056985838383,0.0023903961236766,0.0167126891590796,-0.004656795803149,9.77840981512108,0.590407516937414,-0.371841010353749,SIT
2.19,0.0030687541726618,0.0058898487169374,0.0042729895165573,3.22089349984251,1.92621460364416,9.07675316904768,-0.013941221997344,0.011107727676039,-0.0034726332936046,3.09044983006016,-1.11561152173713,9.27056985838383,-0.0018321474871042,0.0183562758252343,-0.0036598682430314,9.7629550466632,0.573558195071844,-0.320707442138375,SIT
2.2,0.0068546052567327,0.0160204130411044,0.0078305210785088,3.26073710801384,1.87093418531691,9.08209997715612,-0.0147897028161814,0.0162145131477391,-0.0094729611480341,3.08729670423474,-1.18980148126385,9.26602717065234,0.0040343776585356,0.0187642387379439,-0.0075058098806189,9.79225714539728,0.564679756894247,-0.385374803528381,SIT
2.21,0.0163793659273036,0.0165942757634612,0.0022258521489492,3.24181183270201,1.84349494819889,9.1476385687946,-0.0127789911207067,0.007610214008733,-0.0107647854576191,3.0635262563493,-1.13672735420863,9.32206124231151,0.0095911845185061,0.0206533404986408,-0.00425438734387,9.78286465153535,0.593667375840863,-0.400640069371946,SIT
2.22,0.0288834095325654,0.0161636174028828,0.006340752598216,3.24701620313387,1.86905444602735,9.10004339435132,-0.0106391762581954,0.0006075312805252,-0.008858307100353,3.07603327661372,-1.15492734941216,9.33344180015778,0.0164806758428484,0.0260759929444852,0.0032459847355121,9.79339667517562,0.641104764788507,-0.499215561184123,SIT
2.23,0.0337608930802916,0.0173536947406497,0.0022900370936738,3.34687858014098,1.94688409700749,9.09097462241255,-0.013238446272214,0.0035967358475466,-0.0063940477885531,3.08788347396564,-1.11936263529555,9.27097284825279,0.0141540251433305,0.0332379853633528,0.0078425315913326,9.78471794079391,0.69112729876292,-0.372965888859317,SIT
2.24,0.0256083945538102,0.0030699008935509,0.0053750534004325,3.2848032269253,1.99323199604592,9.12060344136608,-0.0098454237117445,0.0020566406425573,-0.0019844672803363,3.08388144141151,-1.08027785392283,9.28403661446157,0.0145029709317518,0.0415627365844953,0.0112932865577526,9.80048226710528,0.707367297497354,-0.418814660769152,SIT
2.25,0.0282514987947001,-0.0153522432435493,0.0089263188648141,3.30394844598081,2.09415391178541,9.11273484512603,-0.0095314110995816,-0.0013019564958287,0.0035379605657817,3.07432952022246,-1.07420876767165,9.3053150195155,0.0155811617648643,0.0445768035054374,0.0139040448956256,9.84177525032028,0.734328578821891,-0.355717627978773,SIT
2.26,0.0242593887194882,-0.0156035315649039,0.0050216363041756,3.38206044982418,2.12817658612387,9.0821308190951,-0.0221404969699805,-0.004424194134542,0.0081884577137471,3.10826662212957,-1.03420083213601,9.27854992595412,0.0213831433250842,0.0600821954202266,0.0120654620824972,9.85345799206408,0.694286300868647,-0.42090895113507,SIT
2.27,0.0303662827520253,-0.0137299016096222,0.0062333930615591,3.4254146887239,2.22442225560728,9.06899629315853,-0.0225256976805547,-0.0002817353754837,0.0166332339931938,3.14065333982131,-1.09763695396815,9.20099657285255,0.0133579594595777,0.0667393776519975,0.0039431422193601,9.86551883008114,0.677012492019869,-0.344373706088093,SIT
2.28,0.0253433877370612,7.75110809919e-05,0.014665233338238,3.42038029400188,2.25951069337748,9.00772750248265,-0.0201259393258205,0.0098320437881534,0.0241665752701421,3.17881279436147,-1.18208732662186,9.18914772558624,0.0064114948366574,0.0764114939731804,-0.0015701597952202,9.92755070149755,0.637994218761089,-0.331296849584221,SIT
2.29,0.0120708350975209,0.0004771841032587,0.0172551207412791,3.44676978168787,2.16048077125587,9.10805637766917,-0.0132652843658134,0.0198850589223848,0.0182503615167344,3.20797053811575,-1.15654568679616,9.2498154163564,0.0147058318877486,0.0804032393070805,-0.0033779355243863,9.98460797566586,0.607155818404039,-0.509458807090605,SIT
2.3,0.0120708350975209,0.0004771841032587,0.0172551207412791,3.44676978168787,2.16048077125587,9.10805637766917,-0.0048347870393193,0.0320349080795289,0.0203627990858192,3.17157004325485,-1.19965734737151,9.27700648465022,0.023466723554758,0.0946181527035781,-0.0095624043846804,10.0078363717397,0.60678730203979,-0.445570047729264,SIT
2.31,-0.0078928203264373,-0.0031479953064848,0.0113116777227361,3.49870468348137,1.96827763493807,9.17599966906228,-0.004882653915867,0.0385850214629499,0.0212400532566891,3.25556890253818,-1.20974256032277,9.37576224192131,0.0219398548995393,0.110501197479838,-0.0164820719056078,10.0582903247901,0.607893209342906,-0.359046578571937,SIT
2.32,-0.0297226392846921,-0.0054025461568628,-0.0012316692805221,3.53699143703615,1.80034196708642,9.39777477987705,-0.0206361809268488,0.0394021190983121,0.0221479961754223,3.24842908596915,-1.20118826189191,9.34412927518647,0.0238286370430365,0.122230784360401,-0.0253811449660646,10.0404518925092,0.612504091939039,-0.436977370968187,SIT
2.33,-0.0463889670844027,-0.035489172729785,0.0019223705094816,3.42185506589775,1.86000395931906,9.38444098522403,-0.0151146223948746,0.0219283272604383,0.0104168477065813,3.20512124046669,-1.22410642043899,9.30583040732022,0.0279883615197203,0.122564064186901,-0.0176793164439163,10.0541878253672,0.642089670925887,-0.386794085716644,SIT
2.34,-0.0614673203908131,-0.0699428544189212,0.0209714896310382,3.30616312234937,1.90337521400474,9.24446154881726,-0.0183559408766546,0.0169343441648959,-0.003118226808133,3.11793912842636,-1.16810545590393,9.33303194947259,0.0163258263613269,0.135764270685949,-0.0207424933320991,9.98416531628876,0.656884971277278,-0.452705277177464,SIT
2.35,-0.0588190487172102,-0.06914258598596,0.0425852563087148,3.32189588773758,2.01409604822267,9.04986691256036,-0.0214661589596817,0.0046170549336175,-0.0315002509318685,3.04363274053853,-1.26132750351592,9.27451398123759,0.0128884150511959,0.161808756421303,-0.0111792302960751,9.95280270837586,0.655886428887506,-0.425031299969415,SIT
2.36,-0.0574488819169452,-0.0648275590117059,0.0649268663551989,3.2742021315331,2.09697778656,9.06398817637329,-0.0339717003944577,0.0057046946350689,-0.0596414359026422,3.02266209899446,-1.3216357056447,9.31206907787736,-0.0017149900918157,0.176258133675237,-0.0099891386360089,9.90303123750399,0.711166433037613,-0.430074677555409,SIT
2.37,-0.0387178039741124,-0.0690864563878796,0.0765792561069085,3.29400042711657,2.10329910471729,9.10824448227474,-0.0208187644851731,-0.0026453915324381,-0.0875762047777801,2.99673022431895,-1.41416078968152,9.35766556379561,-0.0048329406874122,0.196883466863686,-0.0084724890566602,9.89550639710361,0.686219273787002,-0.483844697217936,SIT
2.38,-0.0239159406087295,-0.0831919998253042,0.0791333369704593,3.31773047796273,2.0547003270392,9.21955872756563,0.0065311201578009,-0.0049854026604801,-0.106396303437969,3.01123370706806,-1.4293467413489,9.36881736253621,-0.0049779171308446,0.209369816138932,-0.0169910811291637,9.98533746507794,0.614981229994402,-0.629114307575628,SIT
2.39,-0.0367383371018356,-0.112427280760186,0.0828074529671183,3.35039740150124,1.97407866188825,9.15365447619952,0.0364202519834428,-0.0226514713912141,-0.10723461108802,3.05908482262352,-1.31621930726584,9.32595932369372,-0.0021745120952637,0.223519087071,-0.0250297768464719,9.99070345934039,0.587026498442906,-0.55595647495114,SIT
2.4,-0.0632882507562212,-0.130776868078279,0.0776956974224501,3.56421121297951,1.85422246644286,9.12761730498829,0.06268664220215,-0.0306462486483315,-0.0836660380458332,3.04128514011854,-1.15732224339461,9.26705639810795,-0.0042005385324217,0.233419961683694,-0.0323788671683797,10.05249790495,0.519399606662977,-0.440231344964177,SIT
2.41,-0.111596496055799,-0.142287251089073,0.0764119242371428,3.81822377694567,1.80150700916399,9.09648795223663,0.0857363851307377,-0.0126152166667273,-0.0522713278635416,3.04153681507962,-1.0109648357322,9.16567720924675,0.0070634562708464,0.235109165244137,-0.0346462542353176,10.1174770606184,0.527892784762685,-0.441724949328245,SIT
2.42,-0.129086230649047,-0.121715426895197,0.0788180986639026,3.65179472268336,1.66842692478984,8.966924280406,0.106878680186972,0.0156338412827263,-0.0163924583985254,3.03054866422569,-0.910670596461931,9.16012477791909,0.0099009937172157,0.256060493267222,-0.0370570840101132,10.1819891562974,0.602993833994181,-0.33368354083036,SIT
2.43,-0.118216082022626,-0.104305756352303,0.083767677174087,3.58818650326529,1.65531497481871,8.8542022093978,0.100244289228824,0.0169232317020124,0.00823960310345,3.03261000155702,-0.779035272674729,9.29073830369992,0.0130579591019151,0.280021326044919,-0.027532509281239,10.1667135070536,0.60118278286985,-0.204239057495763,SIT
2.44,-0.113210740384529,-0.0773501016793096,0.0902446424467922,3.48943473400868,1.53897154364407,8.80678767700676,0.0886412053940008,0.0315445580700899,0.0196447561452031,3.03329952513441,-0.757016676885136,9.2052992590292,0.0171872708231048,0.311274644963083,-0.0201261802656195,10.1385048902375,0.57093481756334,-0.110431850569686,SIT
2.45,-0.0686161046463464,-0.0328556227927169,0.0893020193054507,3.36074682031541,1.40682309219686,8.77264642777,0.0476030891681245,0.0383830351549048,0.0176040782407754,2.91386042271234,-0.902441481429942,9.31625504118838,0.0147871672427794,0.337588998045166,-0.0187176570993147,10.120920401911,0.543609914554774,-0.0819596454180948,SIT
2.46,-0.017556911565839,0.0038786961028247,0.091999489816811,3.36851365857905,1.41331840503217,8.8988133758491,-0.0039557183812245,0.0474253964993375,0.0098827967301109,2.75432061320992,-1.12662301066951,9.46197966814924,0.0129545322352702,0.361953214267557,-0.0189121404311331,10.1822881961123,0.494736352943392,-0.0915379101497791,SIT
2.47,0.0353656134967788,-0.0117544431463848,0.0921549787581066,3.87683035742541,1.5465064282836,8.98137519492802,-0.031274178401939,0.0105710334173774,-0.0049135828204994,3.11117215806193,-1.12619940728248,9.42793143254461,0.0097591950328506,0.381818763724415,-0.0194911119207878,10.1501658475109,0.494079379758992,-0.0418042663551376,SIT
2.48,0.0795055131484992,-0.0117035361339889,0.0889067656471395,3.67414107531514,1.77259073695058,9.1066214866104,-0.0206187805424664,-0.0349660687229591,-0.0165478650717019,4.06712563427031,-1.16880644639149,9.33875396093515,0.0166029831743539,0.395608178711822,-0.0216878364611867,10.0446413289492,0.602685894379343,-0.0155013166636662,SIT
2.49,0.0934995865425032,-0.018118024751422,0.0837084640317963,3.47406293540773,1.94785325768044,9.06169285596733,0.014373522099942,-0.0307640721579832,-0.0155902998100148,3.63036276139557,-1.34538463839615,9.19790325578631,0.01917657974045,0.398949986808144,-0.0200533491828098,9.98894905148887,0.645047636775536,-0.0187113545977962,SIT
2.5,0.0621571152744046,-0.0078096951141887,0.0673376935268837,3.48914006583192,2.09147753316908,9.09621031453162,0.0445042771839924,-0.0329106134833333,-0.0222253804106258,3.20743658871608,-1.45748186085723,9.23943372831899,0.0214596647884419,0.408583727057487,-0.014428649735338,9.93962206276772,0.688675251929271,-0.0556800969555779,SIT
2.51,0.0345481375404454,-0.010495446151558,0.0623293237121729,3.32630527937296,2.17791893991534,8.96029972795027,0.0538176136210294,-0.034845541946341,-0.0321562361599693,3.00748675773473,-1.43865907763603,9.22717878741694,0.0293821153136088,0.410766690876639,-0.0214060960003656,9.96423909896776,0.709227852729677,-0.0975424255880676,SIT
2.52,0.0229344195446573,0.0011785381591864,0.0521318331483274,3.23601161095478,2.23113215931314,8.83946418463922,0.0500217807120475,-0.0299848313839161,-0.0338573868753816,2.96284864533302,-1.37391898571008,9.21388196171669,0.0420519348571933,0.430346818515163,-0.0122697187486721,9.97446753295018,0.756321112628447,-0.122154988005348,SIT
2.53,0.0331406194451017,0.0068340985672351,0.0368032228497736,3.203571716901,2.20785601653318,8.82883152990353,0.0496627189326218,-0.0184696272934486,-0.0270855316029065,2.95334962664713,-1.38093035834619,9.15664360107514,0.0406504469733802,0.463175777123396,-0.0151365614357709,10.0586710058197,0.779985441488929,-0.148513978572739,SIT
2.54,0.0492302064329134,0.012496441884432,0.025155521257411,3.10047299135234,2.07484399380102,8.84269872005821,0.0646274074542611,-0.0117581317433086,-0.0168480303638262,2.88691982141157,-1.40495007539101,9.13633234952414,0.0628905440499636,0.486698966550103,-0.0099058809724578,10.0045836457331,0.758500925137799,-0.377507830329583,SIT
2.55,0.0475675983131424,-0.0046675872148224,0.0124453323982176,2.92383755623386,2.02194129938956,8.90757074245046,0.0766694167941815,0.0012809149399023,-0.0096905623165414,2.82903228554935,-1.43510130305993,9.09521959808716,0.0694913937363001,0.494991478574516,-0.0109042989295843,9.92375711409245,0.775455531491518,-0.133359499074127,SIT
2.56,0.046739980380645,0.0027834853906889,0.0026263094250242,2.99369651906422,1.97103402377201,8.92860643756009,0.0624350001132033,0.00340256941497,-0.0064780053862849,2.78596597044965,-1.33025097648768,9.24008078923957,0.0618267544413533,0.523200274682739,-0.0256624861432147,9.97837377079472,0.737127517536782,-0.0384843112189329,SIT
2.57,0.0458560003743953,0.0303082904554066,-0.0057378771140696,3.03101563374786,1.92660670698831,9.03601664872068,0.041564896752695,-0.0029040746827994,-0.0023623832780168,2.70218593389932,-1.2183427736604,9.39130187530017,0.0520427228286218,0.53357269519304,-0.0302954769817482,10.1214867749478,0.801480034285017,-0.208667507841111,SIT
2.58,0.056642330260187,0.0368756053576115,-0.0069373980544546,2.93676243793077,2.10888302334819,9.1431525912149,0.0244737683181782,-0.0099734527639744,0.0096078074331781,2.59135503000296,-1.31865281281021,9.33420048903574,0.0039814183383808,0.554621968874359,-0.0290273204223865,10.3020125451941,0.912627864037153,0.042659628975774,SIT
2.59,0.0785791337917807,0.0104712845825393,-0.0079388600023144,2.88382112054949,2.44235489068606,9.1694418653465,0.0153569412197832,-0.0235990907707196,0.0231333526748054,2.5822436778359,-1.31899435900862,9.31613794922814,-0.0369314878784188,0.574257726908757,-0.02376122863611,10.4286211550933,1.00134413260944,-0.113859330783058,SIT
2.6,0.109643299559834,-0.0406111854082217,0.0013350183028917,2.94928126414235,2.63504530223792,9.04387171378011,0.0225908641238046,-0.0283466116290517,0.0406942966938681,2.60731367063071,-1.37239007872275,9.26029590803852,-0.0495519770816242,0.607462470544383,-0.0154458317897607,10.4037451836475,1.06550445551281,-0.303722817539882,SIT
2.61,0.124139498654607,-0.0967762072467688,0.0035122565992481,2.96564357374276,2.71451080722007,9.0162621793113,0.0138804565406837,-0.0199650263492719,0.0551529205356677,2.66490825384257,-1.51109237182061,9.24759295153552,-0.0689729130323473,0.660155264282529,-0.0088493476809494,10.3173744816551,1.01836238605212,-0.243272007013507,SIT
2.62,0.0915504127640972,-0.178522811149722,0.0054629851227774,2.98152471474152,2.74707888671678,9.00171137489393,0.0178582502375449,-0.0371657859188513,0.060877414244264,2.85276258313342,-1.59360841285607,9.32986375763774,-0.0865575199923055,0.718040981915321,-0.0062515155339863,10.412732597305,0.983553452291052,-0.167098282604163,SIT
2.63,0.0693573878020257,-0.212985277983694,-0.0020175143391128,3.12748634966828,2.86039191856561,8.66293810379176,0.0197930292124947,-0.0621647563164341,0.0515315363469512,2.84632922129648,-1.71265805949385,9.4200546426062,-0.090553545733668,0.761906133992745,-0.0074177055077462,10.5511785585546,0.956780739846063,-0.251069258103046,SIT
2.64,0.046461221629382,-0.188177215891111,-0.0194142255867243,3.32543525662342,2.8415335083111,8.34605633488274,0.0005629200958686,-0.0827481126252257,0.0391144620376129,2.86347600623698,-1.80336959678069,9.42545188893683,-0.0764379874798292,0.813087600591802,-0.0154112592538874,10.5942105009147,0.778387843964298,-0.200739015178525,SIT
2.65,0.0024074803866728,-0.156073017917818,-0.0230816231699465,3.39852736908267,2.81588412498431,8.51523742741212,-0.0078538546196869,-0.0900592102760211,0.0182291490432063,2.77086227097951,-1.80948094647143,9.26830526456021,-0.0642612143783987,0.864933241451886,-0.023321373608812,10.4681469888343,0.685428115251669,-0.0798102446360188,SIT
2.66,-0.014011998478083,-0.131172594174095,-0.0214306957346073,3.4063229117313,2.81772860291398,8.8278672946292,0.0256916163739185,-0.110276665424685,-0.000406686424448,2.55943776857478,-1.74450465508977,9.09058933755135,-0.0448581133057469,0.897489092643178,-0.0424280918653614,10.4410277620701,0.601865878930304,0.0184851369179412,SIT
2.67,0.009964312310389,-0.126283775057625,-0.018611975004077,3.20482441276805,2.64390573783518,9.06816099237032,0.0800335073147881,-0.118524888424339,-0.0281071832749347,2.37394245582308,-1.61955303348825,9.0734452181645,-0.0149101749239568,0.919131709739997,-0.041417362832865,10.3940768788402,0.627684652623034,0.227128703648229,SIT
2.68,-0.0288668665823008,-0.155389131660591,-0.0367998937952897,2.82620882197474,2.21615381135915,9.32902964559495,0.112758448520874,-0.118142849393658,-0.0421986094175133,2.39922490996001,-1.49399746215228,9.17890435898907,0.0103673892340133,0.933174828292244,-0.0461982388085214,10.1572399656016,0.71766095364468,0.183398649195485,SIT
2.69,-0.0720644279048582,-0.215324828188697,-0.0640769159467238,2.65832635585981,1.80321430623622,9.57696976902537,0.12601880309922,-0.125193573757695,-0.0587272420041099,2.5392536579163,-1.25134787761796,9.3795867436807,0.0405015337508203,0.955853487807249,-0.0347336444730489,10.2775361267192,0.749778990247627,0.120163258736034,SIT
2.7,-0.0660579196839431,-0.217162056263375,-0.0943786102202066,2.70141020699019,1.53267484783423,9.48339624804316,0.120100873340154,-0.135577986684116,-0.0655594869637859,2.41624853918603,-1.10435631672861,9.52407962032712,0.0675281417055975,0.992245520829157,-0.0067220614948048,10.0363223233839,0.905288501492325,0.149004674928072,SIT
2.71,0.0082012911669587,-0.216721268264405,-0.106412101719353,2.74312996838596,1.29812808902969,9.24782032509222,0.0943651685853864,-0.140916752448586,-0.0623087808938083,2.34246966383251,-1.01748782856955,9.68134398607659,0.0675281417055975,0.992245520829157,-0.0067220614948048,10.0363223233839,0.905288501492325,0.149004674928072,SIT
2.72,0.120743300215168,-0.209606780525363,-0.103623534147658,2.63028058786309,1.12873183444293,8.96187294254091,0.0454001298683491,-0.161858952945684,-0.0565096756133958,2.09842405597964,-0.982986157813171,9.75186020383873,0.0700372798621872,1.04531788481824,0.0289784509401227,9.94728885807622,1.01670827013521,0.573659673069028,SIT
2.73,0.212087759422356,-0.22190042919079,-0.102882884983085,2.56273213417866,1.13166256683594,8.71971505550802,0.014013991773984,-0.217724537548854,-0.0459793158811285,1.97122853632373,-0.97149008108937,9.82156993794023,0.0176593570887679,1.08652226716279,0.0562020134992215,9.99082305314265,1.10086312818955,0.701261129224955,SIT
2.74,0.255048745254554,-0.174544554502468,-0.10814487151589,2.70070393728402,1.35600805830607,8.50900048085188,0.0061308670202767,-0.278673463259765,-0.0379718153447913,1.9306679630333,-0.944388777989716,9.6687124538587,-0.019135120404889,1.11314207889225,0.0801367609567496,10.0146708780914,1.19716790093393,0.735847344847786,SIT
2.75,0.318582363620487,-0.128418004934896,-0.117200174829913,3.11427107913733,1.71673792017409,8.48984412809313,0.0291252575196186,-0.343872916657561,-0.0364262031961558,1.9808563083799,-0.991509420426643,9.8270100695155,-0.0694573494567121,1.15238378687562,0.102724395858939,10.1077530511148,1.09300356554132,0.993931315869327,SIT
2.76,0.317328749298864,-0.123372643470352,-0.113340903618499,3.53209561358346,1.94297859855116,8.82647681749386,0.0887191194312946,-0.438673795829716,-0.0596907402671308,2.1797868247544,-1.21355351148979,9.60384906289299,-0.110057194948367,1.17395613313747,0.102959082132242,10.1648861758405,0.910625521555426,0.777573479553112,SIT
2.77,0.257773257482219,-0.113617915232717,-0.111145300076524,3.86630603346445,1.84256772253226,9.31431047864339,0.107844275925208,-0.489917714546946,-0.0894240033242176,2.50414648055535,-1.36169285208648,9.23851878283178,-0.127537285750849,1.16085027273181,0.097855620443849,10.0954558655139,0.753889717390578,0.883652276351572,SIT
2.78,0.209726587898327,-0.156499406514054,-0.099906428660723,3.52961392862181,1.75078414988421,9.6630705032274,0.140920824632249,-0.541195463214812,-0.125672796957237,2.82220833405308,-1.48147973573661,9.02367561494853,-0.123147163467498,1.16928892990006,0.0752479736518266,10.1322717456403,0.596053025887106,1.42611563583452,SIT
2.79,0.191913907954588,-0.283248149326508,-0.0781281867858626,3.21432284592942,1.71194121336872,9.80312649871626,0.180783634005649,-0.550431040379407,-0.166049891666428,3.28041028275477,-1.51739060599135,8.97337027445228,-0.0988534126190966,1.1302375007539,0.0454619354913539,10.1689136584151,0.417726191869822,1.74510763413127,SIT
2.8,0.146715708041134,-0.42556812936993,-0.0431881192301838,3.25011656809598,1.94119673126287,9.72188788848912,0.203438243045209,-0.53227037256363,-0.213910729333183,3.55642580910687,-1.38589846232164,9.01179797088787,-0.0859391204822145,1.05084137050872,0.02311124054354,10.345986475512,0.328234235658847,1.84444768101094,SIT
2.81,0.125132165462911,-0.495316277170471,0.0012212362606517,3.38537335372579,2.2360319727334,9.42506416720903,0.268471046075822,-0.535594833230052,-0.256261907711899,3.36527999700292,-1.34366523599337,9.36384140506753,-0.115958205067108,1.01924115097019,-0.0021783031123215,10.4478598733824,0.44937015691579,1.86244339282941,SIT
2.82,0.159788341882627,-0.574598195293851,0.0703215604975746,3.42712356158726,2.4560861328188,9.68976296242694,0.374375084118914,-0.594251527517453,-0.284784975460819,2.92851423344131,-1.6152868193354,9.53765015701961,-0.116421744965824,1.03153159493325,-0.0224500985046173,10.4261061831081,0.63370648807103,1.9035798330183,SIT
2.83,0.180939891593582,-0.739769602098466,0.143471447460213,3.04226425361887,2.2404620160681,10.184803748602,0.469510023189579,-0.698980716421717,-0.31663672321132,2.96439198389158,-1.66277040787274,9.73914398436566,-0.0693288723260459,1.0225688641578,-0.0296473860026688,10.4178960818629,0.830133039472751,2.14400813604044,SIT
2.84,0.170344351752244,-0.952930830943281,0.220781272887013,3.30883216463297,2.51473448315638,9.27902626469772,0.536183191309616,-0.73961083943382,-0.354247238621397,3.18252172103034,-1.65749761155321,9.30430207056485,-0.0546501586014806,1.00247251693918,-0.0405620420991362,10.4328625432741,1.03287736321245,2.26153787568687,SIT
2.85,0.145623747141716,-1.03396472368369,0.306381932184992,4.09459172156816,2.74774649210288,8.29605546253033,0.657501482516308,-0.771387018801098,-0.378746462167361,3.5497534934818,-1.52025054593732,9.40070298748959,-0.17834680670468,0.961278752042356,-0.0404941270536318,10.5189602929936,1.26610538894293,2.47399261398551,SIT
2.86,0.100791207904824,-1.05752242619845,0.314730311419417,4.01685547070737,2.12455760439199,8.92502289792429,0.754639270705501,-0.791422109057617,-0.382294403641402,4.15601657753322,-0.955852435326759,9.15548998895077,-0.36953076665787,0.878470055181911,-0.0451229807966578,10.8105721327969,1.21977065886904,2.9883601279644,SIT
2.87,0.0613372731683897,-1.28130565043864,0.268612150492049,3.43057362167178,1.41514380535126,9.51358732248086,0.826875704513013,-0.852857906889598,-0.379585101581459,3.98441566188836,-0.121122135284129,9.25994246295403,-0.359126192022608,0.862477421773877,-0.059561168346467,10.9432624547056,0.887595444546022,4.01002156028267,SIT
2.88,0.14692177328686,-1.33176489491451,0.220820102185365,3.23566190793363,0.831489683115902,8.57793246207475,0.869415129149436,-0.905011643307571,-0.336311592928477,3.84783387712373,0.393040258642567,9.21135578477997,-0.314318602353068,0.730688560487104,-0.0743191877280745,11.2914097885734,0.610126478015324,4.63995302845506,SIT
2.89,0.197516659650497,-1.2286911429414,0.160151936857443,3.17011917050023,0.825989058833954,8.72394545495735,0.80655676520897,-0.842722856161017,-0.247190499170231,4.10687933174371,0.392617401130461,9.022378895172,-0.246768388746537,0.64850429968891,-0.0712545852421389,11.4498295461947,0.531593818356817,4.42378901872526,SIT
2.9,0.227019371300284,-1.13353851695886,0.106381402271624,3.56427414640792,2.04175371225384,9.43596778928347,0.72895981644287,-0.876670111572041,-0.198558400022431,4.20814852985794,0.128452600980691,9.42567291657045,-0.160255493844251,0.610634485369804,-0.0729343775575382,11.3558841621213,0.50554321663014,4.65647150567215,SIT
2.91,0.187908530416947,-1.05017964364736,0.135652541309015,3.91013494268984,3.26017893327082,9.10050909954962,0.694046319986458,-0.943245930922736,-0.133024276395088,3.83225187116755,-0.519351314420404,9.46343912296498,-0.0510219343812179,0.582035102434225,-0.0673419719048987,11.0105697954826,0.552152791896806,4.3896833708622,SIT
2.92,0.0921942456220705,-1.00452406308279,0.195186846677566,4.30482319278724,3.85664257775495,9.02676864599187,0.652193120541366,-0.979923380060746,-0.122855440184057,3.60911852287966,-0.635266562047607,9.70441129258456,0.0021148697754316,0.590677410432597,-0.0786322222639607,10.5274114587209,0.640158289899967,4.31868675311386,SIT
2.93,-0.0331041168876662,-0.983289181426782,0.240905607288047,4.87400070748114,3.90817546569932,9.04990427832211,0.621961247966569,-0.998699792146059,-0.155420810838791,3.9445307976785,-0.436863903749723,9.58290626181607,0.0627959282755137,0.581690539226688,-0.0956969547930649,10.0024580588683,0.823876138136247,4.32481462709401,STAND_UP
2.94,-0.117463893618466,-0.961969653930212,0.23720572809637,4.92072564390495,3.32691538019896,8.96619049805005,0.633013695398383,-1.01502348165354,-0.196522761724014,4.49126492592125,-0.741625993340504,9.58569641901382,0.132209120065624,0.558530899597585,-0.109099999446622,9.70925677198645,0.928805570016976,4.39167715917198,STAND_UP
2.95,-0.161655808563479,-0.952856180215592,0.209515666720637,4.68499545362575,2.96721370741183,9.05941434663891,0.672940708433082,-1.00338167341625,-0.231138695761837,4.57325297856402,-0.505075597354125,9.5809698548754,0.158137761747976,0.511951129760039,-0.10504188226934,9.4103838379561,0.874132578576636,4.61530993398953,STAND_UP
2.96,-0.106616288092009,-1.00781128698772,0.212118355408022,4.74905402682382,2.99054248329459,8.78803268980427,0.651539972901981,-1.00889063684011,-0.245945856742857,4.59163196234571,0.0493912474243346,9.55927371214698,0.128297168532122,0.436835964634053,-0.0877034684547056,9.21822852097026,0.666060427706322,4.55826794210943,STAND_UP
2.97,-0.0639690278113009,-1.0086143467507,0.26733697430907,4.72944377900477,2.8926007370347,8.71435735577058,0.556412510686849,-0.999322508309516,-0.230715442541566,4.55052524876785,0.455447290302575,9.35839137141908,0.0456229340506546,0.383572035448492,-0.0576483858421827,9.14140969726562,0.60761661834642,4.37246097755406,STAND_UP
2.98,-0.0282792413863273,-0.986380846437824,0.32218199578682,4.28765322377497,2.4472387453136,8.52370553786368,0.437511523376921,-1.02495762995107,-0.193565235276526,4.3916242753625,1.02477181618321,9.29553612743126,-0.0486476120572987,0.341661949398803,-0.0195011053240173,9.10161650967498,0.512389176622372,4.32199282914866,STAND_UP
2.99,0.0147862701810355,-0.970408917998739,0.339019680354411,4.17880734968949,1.89866443218834,8.48216339835759,0.28851470088185,-1.05813425342702,-0.164365562863098,4.26651183269966,1.43080493672128,9.19588479624414,-0.0992041023091426,0.292859920395972,0.0217457283467287,9.05379481622113,0.30844549465664,4.33366172418599,STAND_UP
3.0,0.0626474297186446,-0.988820020084782,0.317645205942967,4.2607274626326,1.80615133959948,8.29633865127973,0.173526182274239,-1.12091864967401,-0.130602561175536,4.26085985530129,1.38072595649646,8.90890616290119,-0.13542193030806,0.244263478284399,0.031693344337591,9.36672153814869,0.236107128268943,4.16722198688109,STAND_UP
3.01,0.120547182784279,-1.0384291887477,0.311559695475155,4.83476027801351,2.29698355364732,8.15305800766954,0.0710331039040589,-1.15287393005408,-0.0906376011874069,4.7250311392578,0.929561745394055,8.41050670140815,-0.145575866723954,0.192045158453586,0.003496239684006,9.73175720957899,0.272343635375947,4.28245784874291,STAND_UP
3.02,0.128001894991266,-1.05484685454853,0.333577364042311,5.73584672953797,2.47448706502452,8.14603457392251,0.0400781891088106,-1.15931265924837,-0.064819062975045,5.20053148375966,0.152327814801301,8.3445403402217,-0.148546033842848,0.137261488925057,-0.054328515020084,10.0433833670665,0.426257993593867,4.22653731621414,STAND_UP
3.03,0.0896537387960344,-1.07367230898203,0.350874242755865,6.24725486309869,2.37043469608443,8.0074197921492,0.0578619475802151,-1.21166830138008,-0.0557718115695356,5.43577592403868,-0.600813271994945,8.5319288562525,-0.14431247949953,0.109555158949631,-0.109126305757569,10.1696556140158,0.602112172090795,4.46080667638094,STAND_UP
3.04,0.0565620035691671,-1.07140630012161,0.374614834642976,6.63068927714663,2.50315429199149,7.91471447743113,0.0635486140412074,-1.24081340345441,-0.036141801997091,5.15987120984685,-0.731130845285037,8.47812138347484,-0.130922446918595,0.0744807990631923,-0.1396479237456,10.2615716073588,0.763678747564384,4.73045571536677,STAND_UP
3.05,0.0086616422653068,-1.10007884506974,0.402532826741203,6.4297842129044,2.77550490767372,7.65844209837407,0.0524382315764244,-1.28357596088107,0.0093286877088193,4.66328392685796,-1.01853825971942,8.4575097496705,-0.113520039844581,0.0595387886011516,-0.140085418468411,10.2760481249399,0.927991467739825,4.78531666195496,STAND_UP
3.06,-0.0242100544383867,-1.18054306771091,0.412125378795178,6.41199439355172,2.61481334058901,7.55543254488235,0.0782658058080459,-1.34412680017789,0.0465364976373511,5.14786026469262,-0.851634547248693,8.03842250729121,-0.0944816703405098,0.0281455238413436,-0.128439056906888,10.1642257393809,1.01410300842391,4.72982539700182,STAND_UP
3.07,-0.0056545717225234,-1.2521449046612,0.39322960023821,6.93673743053717,2.63044271697826,7.0198310807163,0.17443996178228,-1.42784719790609,0.058758121439523,6.04152088271865,-0.603030028956106,7.87503562835265,-0.070165225665894,0.0052964427084176,-0.0918809202271432,10.0257396265847,1.05596540060264,4.60858937582316,STAND_UP
3.08,-0.0111719599030212,-1.23251330533069,0.37948466354144,7.16187433692528,2.49805364585722,7.15826167089877,0.17443996178228,-1.42784719790609,0.058758121439523,6.04152088271865,-0.603030028956106,7.87503562835265,-0.053373282451981,-0.0303198731396978,-0.0681415540474283,9.8637986306252,0.947929609732236,4.5766651816922,STAND_UP
3.09,-0.05603883477298,-1.26322828621337,0.370615349021883,7.09419565511521,2.10806474965403,7.18819701117315,0.2838377434255,-1.43808858185539,0.0984111499664969,7.33671948467607,-0.005020928939932,7.56042752487896,-0.0572678662809579,-0.0708312321688364,-0.0463013518863715,9.73384044673204,0.851468479830015,4.62254875074247,STAND_UP
3.1,-0.034778516854926,-1.25038994575953,0.378736043059612,7.1525727672303,1.60448719033618,7.29185558220891,0.308203130533583,-1.46808036063985,0.0895891269811886,7.46427951259713,1.0431734135104,7.47910651682543,-0.0829171422719062,-0.0964420840862771,-0.034263574885838,9.73108034688328,0.723025668595168,4.63892336067132,STAND_UP
3.11,-0.0115231293317489,-1.25667672613181,0.390767846622038,7.33277139571077,1.1059915979175,7.30013393660053,0.299985117354147,-1.49443071821166,0.0742088918501123,7.4413963084153,1.62586078411167,7.36875841696194,-0.0931458566073251,-0.114376879193917,-0.026023512222956,9.7884118982006,0.559607906544221,4.56393265911813,STAND_UP
3.12,0.0278959420521045,-1.27895966804087,0.394680157797611,7.42325023455996,0.581934881494762,7.0925759041044,0.233429238031139,-1.49013482158286,0.0535888436263831,7.51253286223744,2.12440781104912,7.19421287234652,-0.0751918614556248,-0.135626137344801,-0.0140086271218972,9.86869127064009,0.493174086861489,4.57181436495296,STAND_UP
3.13,0.0876717036929631,-1.31636749662241,0.392183616728718,7.53799601987608,0.572186199314964,6.97285282709521,0.132931171267782,-1.50260148383843,0.0321763804614603,7.43681312107224,2.30118026725611,7.12475914355165,-0.0676923425682642,-0.149352594636761,-0.0016848055367454,9.91769930385461,0.47341704373031,4.39900817313668,STAND_UP
3.14,0.14666934577304,-1.33961305342162,0.411363812091865,7.72778654563287,1.16582566699339,6.90621726202473,0.0205794086720684,-1.51537297113645,0.0328453919540811,7.25240244365505,2.20920016885646,7.11917689805312,-0.0562408994186084,-0.158534505201943,0.0193667257850693,9.82147375328846,0.44420632738828,4.41933044793849,STAND_UP
3.15,0.173118565170156,-1.30362324774671,0.450154858255745,7.93243051313556,1.58096009650361,6.85424804158329,-0.0307174419000371,-1.54012744724638,0.0370759206601663,7.01861580476594,1.77488156020467,7.13680190961337,-0.0429696183724376,-0.17787971256547,0.0276128089845138,9.64545963390786,0.501932103884966,4.52007936897352,STAND_UP
3.16,0.112111381428148,-1.28729765433152,0.489376218446154,7.94955561435854,1.71798364342182,6.55774520568169,-0.0041629949308792,-1.60054382097181,0.0595124625677077,7.08703628064997,0.92677354474761,7.13589455427991,-0.0304872938844417,-0.213051082711344,0.0425484336959214,9.46253167322522,0.506797225297872,4.5062168825605,STAND_UP
3.17,0.0617616363908966,-1.28956925405501,0.510080994200108,8.01689758187371,1.83372000144414,6.0482432340297,-0.0608645728031852,-1.60261079015776,0.0727102915415386,7.49710656882734,0.327748584263494,6.59126938735372,-0.0088984956979871,-0.251304891289774,0.0452528466933144,9.29806367083036,0.594637911494348,4.26451129720428,STAND_UP
3.18,0.0130672771172288,-1.30635740446919,0.511062582404366,7.97027715013561,1.64281701744456,5.81090722666947,0.0085816314700257,-1.63645046549699,0.0441226166997818,7.63717841764119,0.0350269497336202,6.54329263453234,0.0105267270914691,-0.278636550445546,0.0411905070231616,9.20006256891149,0.668152548184086,4.18107086416429,STAND_UP
3.19,0.0204056995572792,-1.33352398217219,0.491039919197753,7.94476177641651,1.66482920157868,5.57908892296651,0.0451085943825936,-1.60255080475448,0.0163456178421765,7.90693873672311,0.179808374678989,6.08046015968527,0.0260146097384018,-0.307183954282813,0.0448072701894269,9.13289440394059,0.80367404808838,4.05921162819172,STAND_UP
3.2,0.0658484107302706,-1.35009622446332,0.46377840529071,8.09581806794752,1.45451735993337,5.32297227684154,0.0976526633497858,-1.61105235642571,-0.0144256427705692,7.79812329336743,0.399816068901897,6.13361389230545,0.0391886806145962,-0.33311054577209,0.0547692817737578,9.19222961202866,0.87767118132977,3.98437327520346,STAND_UP
3.21,0.110746119079977,-1.35602567905484,0.44970407749164,8.13890688266512,1.48711713133194,5.29572080043979,0.116713090677917,-1.59881227414518,-0.013014706201798,7.93741447911551,0.519940170981695,5.9537413911918,0.0289564784665601,-0.348772131997066,0.0708290092936899,9.32846096211373,0.853749572415368,4.00350951452619,STAND_UP
3.22,0.148515658362533,-1.3568137671734,0.446644170752204,8.1480352164202,1.592932932837,5.42486605451479,0.0866115369742729,-1.57693175878441,0.0172625028129587,8.19338630935886,0.506183342810871,5.87581034929393,0.0109132979807667,-0.371025713078506,0.100188169959888,9.34134945945555,0.856775108278257,4.05003584079194,STAND_UP
3.23,0.18668134186631,-1.38367837440995,0.451781689793139,8.11726341191343,1.77869719402129,5.53860523960936,0.047977870052847,-1.57327214749193,0.0478962210732296,8.39860406143475,0.562638145963718,5.84413931952479,-0.0045326124924855,-0.402007528949472,0.114377283496079,9.3069867328353,0.824931914368293,4.08228345858101,STAND_UP
3.24,0.221121864463259,-1.39396532726037,0.437148061397909,8.31815719427225,1.68871850212399,5.35264471554153,0.0352759928688807,-1.61573527559215,0.0764695455507571,8.54237092115221,0.494979553120547,5.67898278571073,-0.0215177860102672,-0.427502429466193,0.137513482961453,9.18772318259721,0.806332138225843,3.92321559166429,STAND_UP
3.25,0.257318377166833,-1.38590672637435,0.420299570900342,8.58749139351248,1.63658369685418,5.25599494177222,0.0405285760981158,-1.66712933225202,0.090127710432717,8.61682324837576,0.471011906229319,5.41368339482602,-0.0380373986094636,-0.461436913870568,0.14381398723973,9.05376980144435,0.754188232694516,3.81101380586282,STAND_UP
3.26,0.266353658646935,-1.38966826344206,0.412444419679479,8.53273948035399,1.64421673593789,5.23995815969365,0.0779781673720869,-1.70125240346618,0.10925913517633,8.67103035769465,0.228807436046581,5.30009557339804,-0.0558992320985743,-0.505774598695668,0.141039523209118,8.91784739547868,0.730731512927474,3.67816026184614,STAND_UP
3.27,0.283397649062061,-1.43479779895711,0.403239893474662,8.27835252039777,1.87585348389822,4.91337516875388,0.0819609439968785,-1.69502602250316,0.126316749765451,8.61908740756366,-0.0524903307441664,5.08461760224362,-0.0580215892857853,-0.555035346396893,0.132589935529058,8.73141195418115,0.674775008360871,3.27213151674443,STAND_UP
3.28,0.273174815520318,-1.40328003261419,0.404132807686839,8.40552425659213,2.05862012111192,4.77056974018968,0.108206393417448,-1.68592487587928,0.111920337689782,8.56369897585426,0.113078168331825,4.72129020838035,-0.0572485958964803,-0.580848907532087,0.121894235714461,8.54589244464663,0.618741482785193,3.18416678648611,STAND_UP
3.29,0.227923159615492,-1.40946243246942,0.424012445720267,8.39294093283781,2.28519699279239,4.82871860837068,0.0906883087827635,-1.59855793254909,0.105801942416942,8.50565159154976,0.310203503514378,4.65011357584708,-0.0427881095720147,-0.60288794805952,0.10835946411273,8.39260407546611,0.583351983017383,3.05661957092977,STAND_UP
3.3,0.192812198167458,-1.41879193071837,0.435331430242631,8.29215824262331,1.91567845913537,4.40556976850209,0.0266619166987587,-1.5519714736031,0.0680798112619929,8.37299782730708,0.494583550224415,4.58188319769257,-0.0297770851892066,-0.619922816000388,0.102154289898923,8.34847752146011,0.509752811909877,3.04395422208931,STAND_UP
3.31,0.200069984629361,-1.38804129952631,0.424466886093199,8.50373843904045,1.51993165287403,4.14649956080811,0.0605361598436883,-1.56529038664293,0.0378663352625632,8.17706434242582,0.785196931564325,4.43112183564615,-0.0205782296754313,-0.627955892534143,0.0849157279386517,8.31268331042575,0.514685391355176,2.92462366088932,STAND_UP
3.32,0.230976319431701,-1.38086744993194,0.4093036951578,8.6877019798549,0.992339786801862,4.00625536790664,0.0391754861454319,-1.57171057769029,0.0181322717372595,8.29187853125995,0.972826923362809,4.36787302567924,-0.0044394025680829,-0.638758437544038,0.0710401458358934,8.36532096890611,0.536555554915832,2.91202068035741,STAND_UP
3.33,0.264463685385554,-1.39138669503177,0.406202414139961,8.8298670266651,0.876369163756899,3.92968275544766,0.0008583499027588,-1.56226065155853,0.0120834646528188,8.56073122912466,0.806514323315424,4.03911127358693,0.0049144965117233,-0.633733975340459,0.0621390375014533,8.37769524905912,0.615193781740671,2.86335372189182,STAND_UP
3.34,0.302675258552633,-1.4208506870693,0.41201090347139,8.8220808437309,0.888989721419692,3.93266396061995,-0.0286817410398306,-1.57996103089411,0.0048926004426825,8.85719536333266,0.745705342882487,3.89342759754781,0.0110755693282836,-0.638273662726755,0.0616695438628228,8.36494747541858,0.617539097156339,2.89196179233485,STAND_UP
3.35,0.317968764565633,-1.44151773308971,0.428861917511644,8.93906803028631,0.95301927404596,3.76868266747969,-0.051134199390548,-1.60539413680581,0.011981717284365,9.09218776687581,0.74070222857007,3.89695881247725,0.0175928502567487,-0.656349502830607,0.0684926104435793,8.40254065463845,0.586248412321286,2.82520521961305,STAND_UP
3.36,0.349897221668141,-1.44245203140828,0.445223018113589,8.98596918311572,1.03980054515731,3.70153456823089,-0.103212591548638,-1.61179674655342,0.0260438810202819,9.32069293464588,0.606245506661546,3.95654660818621,0.0233689950579193,-0.678257286995759,0.0816683302527538,8.36507820687832,0.620236897277218,2.74474369722014,STAND_UP
3.37,0.337761419962568,-1.45524419920679,0.460044322474762,8.99135984434304,1.07124539212978,3.62958902096858,-0.156171861218156,-1.6214218539991,0.0212665089198828,9.14752558309819,0.408258074832703,3.63792674397898,0.0157055571682865,-0.701169044302716,0.0829047039317781,8.35687539872717,0.553130816728276,2.72581423986351,STAND_UP
3.38,0.32269702651823,-1.46074876898957,0.472534436810205,9.01398833599014,1.15238541843592,3.60700374493858,-0.171866042167705,-1.64118729029114,0.0218171023925879,9.02619432976626,0.094210252348427,3.61476800128784,0.0203577383806779,-0.718110583438363,0.0910806976106845,8.29181375221777,0.512411640272712,2.66143301929503,STAND_UP
3.39,0.303855904452944,-1.47518513913025,0.483019899362549,8.96143957128267,1.16764580155879,3.33931302337699,-0.185273989838821,-1.62568803910715,0.0118184934776498,9.01502164462901,-0.239879612437472,3.16361325373764,0.0269630309105452,-0.7466664555098,0.0985951748615936,8.16305816942205,0.488128256737509,2.47245648383547,STAND_UP
3.4,0.318953920507455,-1.49418967543237,0.485797820027184,8.87608362609119,1.22604429736028,3.15840664032411,-0.153815068591129,-1.59594237867157,-0.0213050843375321,9.02343876042428,-0.577182655642911,3.10780256837375,0.0288713235694026,-0.763434088606855,0.0998683146797834,8.04870175232614,0.4925982785184,2.29362152542823,STAND_UP
3.41,0.342172676026718,-1.5096179427558,0.494588944597692,8.85639795996154,1.20655513664479,2.93622852629961,-0.0992545006557012,-1.60391373487324,-0.0676297542214675,8.97506809602387,-0.546373528039124,3.04538832954515,0.0361449033546826,-0.759709917161672,0.0962671170101284,7.96247742921111,0.465071490397139,2.22173071473416,STAND_UP
3.42,0.322071236671718,-1.49683908235235,0.486134907877376,8.8603088000201,1.43639062871596,2.88261583868179,-0.0642862531586125,-1.58023905479317,-0.0887259785003069,8.89863151031513,-0.461680026293585,2.88706076011497,0.0505111128142208,-0.761610757545232,0.0983116150885887,7.81691211796745,0.464961508708399,2.10897720937323,STAND_UP
3.43,0.311187762914611,-1.50070386343909,0.478763651788663,8.96078978432112,1.57503313442463,2.49648302732464,-0.0469910694666657,-1.52609722076348,-0.0929230853682328,9.10563974291321,-0.272105759556321,2.58573915966161,0.0492453140522148,-0.755204978986211,0.0936060394356026,7.77710331443698,0.511608578032268,2.04862875635913,STAND_UP
3.44,0.306132123440728,-1.4988278286897,0.483454005581691,9.09285334273322,1.52554173360763,2.22860245769891,-0.0418280914841153,-1.49722534708319,-0.0911326271675488,9.03551507174662,0.0768373414115053,2.41844144608733,0.0585664231521702,-0.743371156004138,0.0838717589010947,7.7943123673816,0.518860008605961,2.01057850366624,STAND_UP
3.45,0.286481278900426,-1.48582340748735,0.491975705100057,9.15451371114798,1.47431471058938,2.16870738183999,-0.0565334409544062,-1.49326382842117,-0.0759914591282329,9.05181001243992,0.167905112251813,2.36902810682609,0.065131989734547,-0.722308447931909,0.0739026242095841,7.75060637230093,0.51950721952813,2.04171623551042,STAND_UP
3.46,0.237123949046036,-1.48442533705806,0.502546271503412,9.24585102610711,1.32490175630732,2.08463400649104,-0.0808370590830252,-1.5303202389896,-0.0720361610866338,8.99025225563934,0.113536148104088,2.3399271748448,0.0711796346833335,-0.707351474158477,0.0551734315897328,7.73454640043158,0.595024098179537,2.05452208129,STAND_UP
3.47,0.165186710834498,-1.47994978054412,0.515430542215944,9.23522908557436,1.3388358544403,2.10257718705359,-0.103782671512378,-1.54240802660392,-0.0790482686957729,8.97367992562957,0.237662108238854,2.04791273217452,0.0849877813961405,-0.699865938547178,0.0405825946840756,7.80424899930919,0.650142906069878,2.04459388982548,STAND_UP
3.48,0.0777623707765018,-1.47566718520502,0.521849888247566,9.20514759365218,1.34645099935794,2.11421062404309,-0.12865316494286,-1.54271965469888,-0.077668669296718,9.02816278917852,-0.0426102940296636,1.88866436153707,0.0967006942894279,-0.707134380531714,0.0338298819228493,7.92624270610949,0.72948001457728,1.9256630365591,STAND_UP
3.49,0.0274886986075065,-1.48105299702427,0.51467201007613,9.29696823313351,1.34048284245932,1.95051708560512,-0.142795549002456,-1.5409929684842,-0.0610184664179024,9.20109055083647,-0.139847463594175,1.78073610361413,0.0960830276070374,-0.716189032615235,0.0227740877173265,8.07605434047695,0.737980745292501,1.84682920110524,STAND_UP
3.5,0.0102524104836572,-1.44663323958464,0.511794429048669,9.37616636673172,1.15059162482667,1.91027983822166,-0.164515741778548,-1.51884200602945,-0.0676571992182526,9.58117109210285,0.213360561052113,2.08876777797107,0.086282241641002,-0.723995053539738,0.013142229980665,8.17833757335087,0.781590917554217,1.60277395204286,STAND_UP
3.51,-0.0009965012428768,-1.43287988323083,0.504631300523484,9.45170072324448,1.21191747405322,1.82342451346886,-0.221068290215591,-1.47847154869195,-0.0932694306468062,9.69261495447365,0.664831442692458,1.69792669065472,0.0854821829435557,-0.722265024670902,0.0097941822682492,8.2318177044112,0.823761507742436,1.59812375460167,STAND_UP
3.52,-0.0556500441744644,-1.42510684330038,0.496824202283654,9.57325497776248,1.30201906014655,1.73912655728563,-0.233417977756526,-1.48061417770905,-0.117422990102289,9.55334830723184,0.825334034419438,1.70204174576253,0.0675085064063189,-0.705128110878657,0.0023713064319516,8.25887556848142,0.843341656659969,1.72935525827948,STAND_UP
3.53,-0.106991469134,-1.44185166576898,0.497331642445941,9.5887913813827,1.24357112866814,1.22253594646685,-0.279652631199889,-1.43748626064127,-0.143556052670315,9.4551898318002,0.905641715196898,1.88829834654393,0.0472687839315186,-0.694253868528772,-0.0045644978474687,8.20298859424781,0.835112431841556,1.77505028822026,STAND_UP
3.54,-0.138996789715072,-1.43556712015845,0.494926742568508,9.5855992289589,1.24758848366363,0.874260971087494,-0.335971360101948,-1.43743122263947,-0.176114092161108,9.22158367855074,0.769256867417516,1.42716883958889,0.0465668979349828,-0.688228454733242,-0.0053907845484396,8.12466029386851,0.832097588790458,1.70518762910373,STAND_UP
3.55,-0.294827156028773,-1.49865536727698,0.497986258333344,9.55809708717435,1.32511867394643,1.0286353705657,-0.397401925418925,-1.47004355226636,-0.199044047855529,9.24729376652524,0.865737640107685,0.958381634407503,0.0460348656059791,-0.693551566340188,-0.0227996910480231,8.07558238680235,0.735667298301418,1.84027747281656,STAND_UP
