time,left_angular_velocity_x,left_angular_velocity_y,left_angular_velocity_z,left_linear_acceleration_x,left_linear_acceleration_y,left_linear_acceleration_z,right_angular_velocity_x,right_angular_velocity_y,right_angular_velocity_z,right_linear_acceleration_x,right_linear_acceleration_y,right_linear_acceleration_z,pelvis_angular_velocity_x,pelvis_angular_velocity_y,pelvis_angular_velocity_z,pelvis_linear_acceleration_x,pelvis_linear_acceleration_y,pelvis_linear_acceleration_z,label
0.01,0.0027645030580404,0.0104218443719905,0.0043341164434569,3.22710352971051,2.64789545786678,8.97225209202456,0.0052836636067874,0.0038421454224211,0.0116241855545281,2.42002367836846,-0.695538781295299,9.51192555813464,0.0868973235135908,-0.0346508625562464,0.0230289584584881,9.80073444075862,0.44350518812443,-0.822310582732031,SIT
0.02,0.0043231049630163,0.0179953583751313,0.0033988704620864,3.23023807399782,2.66444787903442,8.95501351963656,-0.0003880700239042,0.0030091983458801,0.0155304878554862,2.49496084108774,-0.689788548898544,9.49629189276408,0.0936032959539792,-0.025282868897888,0.0198896902567826,9.79497710483055,0.559600826583377,-0.852524035653965,SIT
0.03,0.0064626688549395,0.0100490543487409,0.0034132548788899,3.17286035872857,2.71158841493573,8.95115895632112,-0.0011146419400046,0.0017575485118691,0.020471338942346,2.54132342795866,-0.719244377292812,9.51994500019749,0.0936032959539792,-0.025282868897888,0.0198896902567826,9.79497710483055,0.559600826583377,-0.852524035653965,SIT
0.04,-0.000525345559508,0.0022152605482756,0.0095003166618955,3.19159393539097,2.69216675653954,8.90399118242198,0.0017053190760372,-0.0039292600294834,0.0206923665493643,2.56881672333777,-0.738000665553449,9.49353167287751,0.0936032959539792,-0.025282868897888,0.0198896902567826,9.79497710483055,0.559600826583377,-0.852524035653965,SIT
0.05,0.0018267085834358,-0.0007171617974775,0.0118258124482604,3.15292692533341,2.67438103790326,8.94592232880505,0.0174568460360235,-0.0056159757684277,0.0174181156907197,2.5694989270431,-0.676804448181513,9.44068101541419,0.0943857976382032,-0.018975034758129,0.0191377475817735,9.83185008735172,0.846441865111901,-0.873430917829495,SIT
0.06,0.00259164632273,-0.0045708762072795,0.0098620869155261,3.11888066227597,2.67309444635634,8.97010181371836,0.0319517324480423,-0.0111412280064891,0.0099321090782408,2.56084625576833,-0.573322215586461,9.50755034239291,0.0758122942028978,-0.0164726701727764,0.0185858874065271,9.80938181366114,1.01992172303452,-0.845281150106791,SIT
0.07,-0.0042398829983806,-0.0050518623536397,0.0089273056799705,3.14981904151078,2.65751110669993,8.96325448048598,0.0307233126454111,-0.0031154076855774,0.0140246844667198,2.59650076585611,-0.544567185235213,9.57120233101803,0.0640966016061278,-0.0150685088727437,0.0147211544660122,9.82506157467904,1.07494873507675,-0.798166054444777,SIT
0.08,0.0020110347501598,-0.0000181051335225,0.0100296101992455,3.12867836677358,2.70504262964297,8.93471599186415,0.0294664420489834,-0.0069518592401564,0.009814700249817,2.59943627940376,-0.522141577245306,9.51488152751739,0.0484678430867852,-0.0225187073339377,0.0114656854420384,9.73441313786875,0.996892322946255,-0.743650512979439,SIT
0.09,0.0035560531932091,-0.0000852964643611,0.0075975657735058,3.13323998048418,2.72137011322906,8.91703438749727,0.0178978419153253,-0.0047284973925787,0.00938813189677,2.62609187544678,-0.505294903655404,9.53182249472398,0.0277320303120868,-0.0183641697805507,0.0046242883497095,9.71598577116223,0.905285425556473,-0.63499191949718,SIT
0.1,0.0161729067307683,0.0053786918229274,-0.0028271543440173,3.19859643309669,2.76456050656368,8.93843862862851,0.0134722004526479,-0.0074819153392494,0.0070267093998707,2.6074513423618,-0.493390469484728,9.48174699700445,0.0158282555052893,-0.0251871046261303,0.0047436107876771,9.63009892455556,0.802751085877033,-0.64868156744297,SIT
0.11,0.0144549959689601,0.0014204218220966,0.00401700703309,3.23413434697169,2.81766368945,8.89341822144323,0.0072245356497713,-0.0090362443108825,0.0047640473188547,2.61828119402042,-0.428284988719666,9.51521642220756,0.0185423299571522,-0.0238105299755205,0.0056009995808394,9.68547614660294,0.760022461096742,-0.692444034997479,SIT
0.12,0.0105295114703161,0.0001058407363575,0.0000147463415325,3.21196071625573,2.87249969194769,8.93758634572244,0.005071089378683,-0.0063408209868767,0.0047545749793317,2.61704066620706,-0.413641918552118,9.43534477657813,0.0155946639252417,-0.0175135642854364,0.0062516365198377,9.66486076336356,0.727699188073181,-0.675426172911347,SIT
0.13,0.0109115203787644,-0.0018213455939807,-0.0009665478138824,3.20950735888357,2.90187397169094,8.86146445000672,0.0072433477149465,-0.0029354312934982,0.0025846081149387,2.60603369028498,-0.444257935306837,9.4449541837306,0.0151405907668198,-0.0151027440076358,0.0090773283018731,9.71612636014456,0.645620290487503,-0.756262405744766,SIT
0.14,0.0003948990116743,-0.0052525985955504,0.0016323181671066,3.22962859570577,2.93934692315909,8.86652102573547,0.0082328251130916,0.0066380384428847,0.0015265530200638,2.66708755162326,-0.402606511630578,9.52560957882718,0.0191359687286429,-0.0121538906749285,0.0137716927139416,9.78161757345044,0.586207185344808,-0.783534128953838,SIT
0.15,-0.0038998171052832,-0.0079657377356562,0.0012251387992752,3.20307189145408,2.92009542691017,8.87585558102537,0.0097418170438511,0.0130360617747803,-0.0008592889292963,2.67060800695387,-0.396114496787055,9.5492383127556,0.0280783214836964,-0.0140246285294416,0.0201596725558744,9.78943043678132,0.627137461243606,-0.861489022784105,SIT
0.16,-0.0160163696687707,-0.0089932608144691,-0.0030784634375976,3.1920956616947,2.92082519046692,8.90831929247815,0.0024988127926029,0.0159711893100601,-0.0034450452954273,2.64307810972542,-0.410319966154153,9.53268958319359,0.0469610617143841,-0.0005628421612655,0.0269096156993157,9.87706823230089,0.632145869228278,-0.911518322407686,SIT
0.17,-0.0175876948414092,-0.0022744055082834,-0.0058724154021432,3.19553588981929,2.88519328548578,8.91140387720004,-0.0093578684498272,0.0178316741043611,-0.0069569373917633,2.62560507550798,-0.447254849535449,9.51949704171658,0.0588431510410429,0.0042084412218077,0.0328279453403839,9.7950215957986,0.63091478517578,-0.77875177591782,SIT
0.18,-0.0234583013093815,-0.0092354828241961,-0.0079531346869544,3.1748120126836,2.79597077469939,8.9268380128494,-0.0131751515206065,0.0081804423595835,-0.0166003963002118,2.58800514107103,-0.440971177885451,9.49947888476228,0.0425498176532471,0.008895307324569,0.0278706974999331,9.64662274005536,0.56096645553003,-0.519484611972727,SIT
0.19,-0.0279795112930994,-0.0026707530263638,-0.0143979474257693,3.27317710664931,2.73046363236571,8.89232669919404,-0.0144510085171066,-0.0017578184700744,-0.0186284066664564,2.52383892581327,-0.416458235988393,9.50554967653407,0.0415330489719455,0.0017078998568103,0.0164660757122572,9.61461688935992,0.508810897298978,-0.511317848526725,SIT
0.2,-0.0192360090563851,-0.0008572146072469,-0.0194889381902804,3.29451247338627,2.68098251548492,8.92137481495811,-0.0069563038940896,-0.002130522353674,-0.0226345546595694,2.53246981143876,-0.424658317607657,9.42909349128058,0.0655620011534843,-0.010226237065994,0.0029384182512087,9.70007041962308,0.445018343351777,-0.709111790527226,SIT
0.21,-0.0145458674146336,-0.0033967988585422,-0.0174508508252042,3.32446560110595,2.6648820547338,8.91501812684035,0.0017225759968004,0.0111573709930044,-0.0186558956267426,2.48761476278542,-0.495825199991997,9.45494018827575,0.098156764553311,-0.0095628524997046,-0.0046213776564573,9.76216496882376,0.473924832002014,-0.874328314598286,SIT
0.22,-0.0100238627929226,0.0010040853914161,-0.012119824365961,3.32040189074496,2.64212073967178,8.85988857108238,-0.0005502314904621,0.0255347765387698,-0.0119115461398139,2.53596770132405,-0.571666691462621,9.5154123312358,0.113817213575761,0.0029265365614332,-0.0101692642871631,9.81058850568912,0.515742950065089,-0.940174574830149,SIT
0.23,-0.0170122203440014,0.0041335487290868,-0.0071441971393154,3.2662643061746,2.65950034343916,8.93197173646092,-0.0103887329376177,0.03027745998843,-0.0064833470885146,2.55836585541793,-0.610091872581261,9.54609978805229,0.116963634941204,0.0128006790538934,-0.0059400806004976,9.85645645485861,0.552320850580009,-1.04695922367897,SIT
0.24,-0.0163591244314107,0.0048779957058227,0.0035184592426258,3.22694930149096,2.64050794792067,8.97448445968852,-0.0207670601942154,0.0320931014926665,0.0024497776063724,2.52229410199936,-0.651871054609075,9.56281929275495,0.119781810170042,0.0162795296538139,0.0090853785673973,9.92092806545559,0.650451506658736,-1.06243043782122,SIT
0.25,-0.0177061216107627,0.0023159969817549,0.0067661992756538,3.145259659454,2.58154901409501,9.00345721255292,-0.0231463746143624,0.024263068235037,0.0082307154382419,2.56624457449214,-0.683027910536568,9.58706621166359,0.116260573490998,0.0298027198643976,0.0369215155684384,9.94503074058052,0.746789808393463,-1.08898211819337,SIT
0.26,-0.0092850601754929,0.0037176182746127,0.0119865078439345,3.13097327272821,2.61009494755287,8.96061507768923,-0.0271311011603152,0.0079917938020464,0.0118722310907358,2.5646296102405,-0.685695861423072,9.58730790252035,0.0897067003516577,0.0436274135096944,0.0542818467954083,9.90245491266035,0.838854750701502,-0.882080789754163,SIT
0.27,-0.0073432459061986,0.0093657949096485,0.0100718353601686,3.12880710361531,2.69394838954641,8.93802227041561,-0.023335031083766,-0.0082853064934937,0.0145974565192784,2.54544687224672,-0.677796266100073,9.53711474613823,0.04185225647555,0.0424811514517001,0.0532489228177575,9.73463800219297,0.86223491852253,-0.62087860166995,SIT
0.28,-0.0108598941233468,0.0104379723965867,0.0092007320554562,3.15535668796832,2.7119162745901,8.92911935567461,-0.0082842699343006,-0.0191861247035803,0.0154714493409174,2.51169740388429,-0.705751633250629,9.47294687242484,0.0321402342260621,0.0120231826315134,0.0277683771713848,9.67911565235748,0.862508539554375,-0.649657907990416,SIT
0.29,-0.0096977437847375,0.0122988547579107,0.0077526716513134,3.16387907713847,2.79988948933999,8.94732885053509,0.0045852795935924,-0.0194328157971827,0.0171359338814154,2.52626552908397,-0.708341950926831,9.4194299677029,0.0321402342260621,0.0120231826315134,0.0277683771713848,9.67911565235748,0.862508539554375,-0.649657907990416,SIT
0.3,-0.011867825248761,0.0049665700363958,0.0047424226633465,3.21332464522492,2.82050261618034,8.94658279735341,0.0007926821219051,-0.0031547746223408,0.0144132117751657,2.51252204596193,-0.692200030534947,9.3925016881404,0.0361752948220113,0.0010852553640303,0.0086508987159403,9.73211615934891,0.812441399196503,-0.731907130324205,SIT
0.31,-0.0229858241946199,-0.0015578462159879,0.0060149166561701,3.21640029174185,2.78448750055719,8.94982989796477,-0.0029989224130394,0.013123694331918,0.0116907845670122,2.53668390048334,-0.644681424903863,9.4530030202712,0.0293861211753843,0.0075501703553263,-0.0109407449463453,9.73916841304579,0.754026592720141,-0.909854295400679,SIT
0.32,-0.0220367420269486,-0.0047083776528483,0.0022513531027482,3.23897455387161,2.72866650522762,8.90572723328413,-0.0125813030950252,0.020432168952869,0.01052641068822,2.53944994513052,-0.640090080106748,9.47672370022278,0.0189393296273724,0.0204196940978954,-0.0284267383785978,9.74654459222681,0.734532325907183,-0.934909837846691,SIT
0.33,-0.0249172733539724,0.0004301714282523,0.0094380825478898,3.20782369488132,2.69090698834519,8.93330108431616,-0.0192040487623476,0.0222341237161796,0.0111283387459875,2.56348693222318,-0.627055500404622,9.49419021932619,0.0042163675124314,0.0260457353787763,-0.0255718379186902,9.77812228734865,0.723639616093448,-0.890254184956325,SIT
0.34,-0.0173179630868828,-0.0029404474481339,0.0083997694008035,3.11978849426409,2.64371966803291,8.90399233884373,-0.0130765947589973,0.0156443555339251,0.0110509113974949,2.54552286736559,-0.579459140732922,9.51129252681348,-0.007368865449023,0.0415372252480845,-0.0185009756713586,9.74276159146329,0.736848868227967,-0.815006113989942,SIT
0.35,-0.0093449013972902,0.0060611002103678,0.0026640197473908,3.12104834985482,2.69304814298696,8.88416027761352,-0.0098109422150809,0.0166007342291871,0.0137284854802232,2.50049126873751,-0.599276745948311,9.52425698989833,-0.0255727244422778,0.0438605088937628,-0.0089391011573113,9.72015414898549,0.646808861205361,-0.584220108246183,SIT
0.36,-0.0097406596453068,0.0113159901881696,0.0010418050840298,3.15058001792169,2.67693854665212,8.87793217222311,0.0031267980257275,0.0065301910465566,0.0116151751594697,2.48200922691869,-0.603519741069907,9.5541846284121,-0.0146674638859991,0.0335276610150505,-0.002998955142513,9.68971255752908,0.632028384078365,-0.576528576750069,SIT
0.37,-0.0121222085119619,0.0099431482791266,-0.0053918614788678,3.16198109911961,2.73088235462558,8.89891592295015,0.0166297214952601,-0.0085726651005565,0.0051949648402058,2.45592914315939,-0.617584883978472,9.53717698986573,0.0237960410995937,0.0145931118922497,0.0030413620618615,9.70476054422544,0.589638838099046,-0.626681708334034,SIT
0.38,-0.0109590620280432,0.0118049998368145,-0.0068390658422902,3.20963951412411,2.70111956251903,8.91851204530543,0.0175264368619815,-0.0151013608601733,0.0009944067251424,2.47434005239283,-0.612434207202926,9.50732980829804,0.0532027113473916,0.0093076253231985,0.0122726579414697,9.71816191557292,0.512071574634892,-0.673741273916271,SIT
0.39,-0.016051048828271,0.008633154455833,-0.0093902707189715,3.2153209567776,2.68790974309814,8.97733755180557,0.0138331021308488,-0.0166012454697621,-0.0063127553256128,2.4597839907815,-0.56145461523374,9.52373812906233,0.0746604370218156,0.0000854305183807,0.0060857438537001,9.72978896337451,0.491828961499484,-0.814232671411102,SIT
0.4,-0.01934518809546,0.0004179492076377,-0.0042347981568942,3.22827983125508,2.60009276066921,8.96836985779161,0.0134795442626939,-0.0071445032568057,-0.0056183291319435,2.53895870855695,-0.534425395293015,9.45154443857757,0.0940409370448464,-0.001728514393832,0.0098060992105155,9.75545634690569,0.49506164053848,-0.902279586390845,SIT
0.41,-0.015021361943185,0.0074389569604337,0.0002916630616885,3.25813649057464,2.58342375942919,8.96218851252441,0.0088890914221543,-0.0021159173426517,-0.0087253976357584,2.55531524495003,-0.496466382692115,9.46518328769963,0.0983200685792153,0.0036068685744002,0.0157705451395151,9.80275494113832,0.537607895191728,-0.811603282920134,SIT
0.42,-0.0138056462081739,0.0069467810627105,0.0081748547952269,3.26873214533148,2.58611951731762,9.00338107628846,-0.0040943577122984,0.0098148491847524,-0.0036337126412793,2.54472836775492,-0.474175929994194,9.46196753359117,0.0906990304391952,0.0121080503951652,0.0246948068180463,9.79462970467935,0.584861595273387,-0.831612374667285,SIT
0.43,-0.021531413683887,0.0039251563057038,0.0229537143011127,3.2272575463847,2.59509876027489,8.97018408367828,-0.0114255033658528,0.0164701147583697,-0.0002685042883921,2.53061478823074,-0.472840662704413,9.51527712539911,0.0839836383598325,0.0237412510598759,0.0368421700077522,9.77424943049037,0.641420053335484,-0.908263933140454,SIT
0.44,-0.022462118018005,0.0004077552989629,0.0319400466561302,3.18273253820196,2.6431733027688,9.00739504809066,-0.0148973951102958,0.0168465153060729,0.0111437686542259,2.52636733434483,-0.494123663830059,9.57197088364494,0.0768943035854366,0.0369014393030873,0.048388333320301,9.7690270284874,0.692033417089997,-0.884325169669075,SIT
0.45,-0.0218319606725822,0.004463460894291,0.0400090960400456,3.20822059661538,2.68787601118121,8.92302267706064,-0.0195793637124041,0.0115300654114879,0.0153666649428878,2.53838221223351,-0.565431775538633,9.61186962535139,0.0545977244305169,0.03717656409868,0.0566715666811826,9.77789484315061,0.674384345666,-0.709133977321062,SIT
0.46,-0.0221993143630748,-0.0002781416458644,0.0462171060632082,3.22164164286431,2.73932885098208,8.94413032162917,-0.0130039391633901,-0.0024782457729539,0.019117031182801,2.53927329872276,-0.600544283003311,9.56851018482794,0.0339475050078669,0.0215217084038406,0.0517258288209962,9.76776070208755,0.751255354866798,-0.617214250488507,SIT
0.47,-0.0251625848919775,-0.0113936230043247,0.043662969735615,3.22506951573818,2.65073969497713,8.96732599846561,-0.0069080335056508,-0.0209267171527961,0.0107373371919752,2.55195829042845,-0.656893639247015,9.52808331510004,0.0244445575264034,0.0057281066190379,0.0426401850050998,9.71846260449111,0.734110952932144,-0.597288120273003,SIT
0.48,-0.0286576204631241,-0.0060167814249178,0.0469303153229364,3.22268801886598,2.63043132057082,8.9852778807393,-0.0033112389061738,-0.0214680887062947,0.0135218193662284,2.5884955620195,-0.650492020528369,9.46818251664111,0.012473611647136,-0.0171487603348977,0.0252157256995303,9.69716178914829,0.728127210629453,-0.624858650232425,SIT
0.49,-0.0316784511442193,-0.0114329220939545,0.0324314624549448,3.19567388377109,2.6924357075648,8.97247179781273,-0.0041680411440007,-0.0225525688924323,0.0042638976533316,2.62953153703274,-0.638286032196042,9.43160398752336,0.0093150630100521,-0.0191860351234116,0.009602471483878,9.73280812174464,0.714727673917607,-0.698471484680729,SIT
0.5,-0.0252183806619133,-0.0123723278366819,0.0369598676379767,3.25652457216688,2.74328731827075,8.93661211349812,-0.0082794724415638,-0.0047745935392156,0.0014385213639438,2.6366115372911,-0.666455208726619,9.41116248955691,-0.0134105286266838,-0.0146327797454961,-0.0056242239823404,9.75525017018934,0.779854140881528,-0.724418362551134,SIT
0.51,-0.0293094086008912,-0.0100768858339299,0.0388908371065027,3.24444650232117,2.76991897014948,8.89383694259358,-0.0007059819584864,0.0048508961223428,0.0027654049942469,2.70493133160374,-0.686792714687446,9.42845483226068,-0.0295583060825622,-0.0038413844456207,-0.0085677986354376,9.78158632562432,0.756298186146783,-0.766196044612442,SIT
0.52,-0.0310896013051789,-0.0116896501310629,0.0364038772054203,3.21625473429404,2.78129558873761,8.90112627759128,0.0055651500702967,0.0125021742900366,0.0028604354529929,2.72761019731483,-0.691783685786291,9.50206141099119,-0.0325680354400191,0.0033872127852066,-0.0045812264556185,9.78995472741939,0.798560396001292,-0.843218606869641,SIT
0.53,-0.0248628594093815,-0.0076337553221176,0.0307816921641441,3.1708561151241,2.72183963402615,8.90535806986171,0.0058712075913089,0.0049029966792048,0.0051415116110666,2.65703674570362,-0.638386544374572,9.52839331974717,-0.0415251104130776,0.0082779570454024,0.0066007444439443,9.73534347579619,0.813354236088439,-0.755589888030818,SIT
0.54,-0.0237333448507222,-0.0067347584969851,0.0226020476182482,3.13378727466309,2.69586426077518,8.87455637987959,0.0100311299375576,-0.000670385196613,0.0036181822533901,2.59553581616929,-0.592370216694656,9.47818549779148,-0.064356682763279,0.0119240073125797,0.0210868002495667,9.73698090711892,0.755139311115119,-0.661228026138215,SIT
0.55,-0.0169364662117049,-0.0005584049645709,0.0115770144769598,3.13310728131267,2.64275747245515,8.89501134680129,0.0159670783423176,-0.005585807168446,0.0049765672451485,2.50575586695421,-0.580570954316165,9.46716161031992,-0.0824141903368538,0.0124593226194215,0.0238360271908713,9.6402192323688,0.734237316538634,-0.58003059747616,SIT
0.56,-0.0118791780849967,0.0083089710898232,0.0021836059060713,3.18600813154968,2.62850336352981,8.89682774790102,0.0130118068637481,-0.0000771458863313,0.0032093090735745,2.50019389304062,-0.551785493390764,9.48720549720999,-0.0786227597855641,-0.0007174776286287,0.0236915602807924,9.62278394153935,0.640256056025705,-0.622745271532419,SIT
0.57,0.0007508141205195,0.0061626013383525,-0.0097995835323764,3.21106242226875,2.59636691366378,8.90786873008473,0.0041401681188079,0.0023865236834527,-0.0007197542287097,2.54226211724503,-0.58565250542168,9.48759755518553,-0.0550926887927617,-0.0094023010784315,0.0164577249481845,9.62426611783668,0.543635573573518,-0.681712185030612,SIT
0.58,0.0032759481874576,0.0139328764105967,-0.0171002199814292,3.25556641894525,2.60207937058306,8.92442572786493,0.0034791231978552,0.0053796652506197,-0.000934217017875,2.63194882077168,-0.595949861602861,9.49874305801779,-0.0407907859175427,-0.0155372159348937,0.0190955366468692,9.70856183138463,0.480292602461153,-0.722328323882151,SIT
0.59,0.004027962890574,0.0167580176522325,-0.0242909007765598,3.24926872650209,2.58661802715616,8.94231781570712,0.0001234521549162,0.0081414637788699,0.0023450986609462,2.60515819203622,-0.610583368774771,9.48190396579004,-0.0187744152545467,-0.0072223361266789,0.0156552487534036,9.80378783609761,0.463940010556075,-0.798203096542587,SIT
0.6,0.0114369893999922,0.016008408274223,-0.0261557534715589,3.219892405423,2.56910614843343,8.95198784001821,0.0021125140754059,0.0132243501409036,0.0016149167303112,2.60855445419196,-0.604925855981766,9.50553650998828,0.0057728449063179,-0.0086423327375535,0.0197629152953964,9.7925378988308,0.535684701365782,-0.907424366143105,SIT
0.61,0.0202387035006816,0.0187916306993733,-0.0245295291196305,3.22797134746954,2.51918486402125,8.93972057144759,0.0088581557236747,0.0195588698849235,0.0033580749832143,2.54749320438954,-0.573395468606003,9.53532301365626,0.0220653077396644,-0.0023624454083415,0.0308929059342734,9.82024389739068,0.609279629872082,-0.848344871031947,SIT
0.62,0.0263245216846616,0.0164362455814339,-0.0164105399832739,3.2155799766585,2.57408235840223,8.95210844151198,0.0124998532327574,0.0171586308382805,0.0031647203301805,2.47299091345456,-0.558201135925758,9.49511907611206,0.0218186200205823,-0.0045484926042213,0.0498167968544505,9.86091367172118,0.76257521911299,-0.82889989237778,SIT
0.63,0.0202788480252504,0.013081683897631,-0.0125790607006714,3.17928500179265,2.57545338226092,8.97626351501222,0.0153573044639125,0.0096099645050341,0.0004129962107346,2.41094510478465,-0.578850327140422,9.53780374441745,0.0106523886958301,-0.0093244458039469,0.0626910352413264,9.9073501138908,0.858833865709689,-0.831433569837081,SIT
0.64,0.0279387700519963,0.0183035110858064,-0.005373374731887,3.15039355218696,2.55886929242493,8.9854776514814,0.0051583004923086,0.0039976800821499,-0.002573457353883,2.42761903732208,-0.574279433574004,9.50837058504257,-0.0075223809667365,-0.0098522427201586,0.0748999724428345,9.8358947955216,0.866112382403657,-0.886865362836953,SIT
0.65,0.0234671224630089,0.0225234623207833,-0.0024568471985854,3.15079052668063,2.53241645758146,9.06107135355662,0.0058190933457358,0.0010046358539711,-0.002357900072045,2.47257360953552,-0.569593335569981,9.57553434764837,-0.0311937900146692,0.0005878058099033,0.0686677326846278,9.78482183053979,0.812835929752214,-0.863813357274444,SIT
0.66,0.0275790897747072,0.0245250532773024,-0.0002438965439909,3.12202095353803,2.51030558115465,8.99746270194553,0.004866449503799,-0.0104266251740986,-0.0042810163412251,2.47445489116826,-0.602144476780462,9.53209321114101,-0.0773253650566361,0.0130708203401928,0.0572667198554249,9.69664204275435,0.671802569945124,-0.868422496150308,SIT
0.67,0.0287442992197033,0.0263862703590888,-0.0016852128660505,3.1454334731318,2.61693525685881,8.96552773782094,0.0108018956073235,-0.0153418335659389,-0.0029187723741106,2.50892143042243,-0.561035339692539,9.51585457522976,-0.108340249743364,0.0233209517630127,0.0348776113282098,9.6310286217064,0.477502659890116,-0.752304559988154,SIT
0.68,0.0347616610350378,0.0221008344601196,-0.007024352643229,3.20206546170855,2.67440044766857,8.92928048230836,0.0141132774969251,-0.0162455423150016,-0.0032193848993784,2.52914959854634,-0.589367013524851,9.44251633541594,-0.127959717527833,0.0277509293576677,0.0008288769144745,9.57631453056419,0.33302976140299,-0.670887513003528,SIT
0.69,0.0326150732632488,0.0157468284546097,-0.0033176131094871,3.23560574393518,2.73495022086114,8.95764607481203,0.0126289237877458,-0.0024806175660246,-0.0043952412217063,2.54736022429079,-0.584452052255597,9.41269314830223,-0.114627707197625,0.0212910347356739,-0.022686411615293,9.62665787503482,0.281203872228415,-0.792464853023658,SIT
0.7,0.023627592232702,0.01225482804863,-0.003151929843823,3.17604816069536,2.67758500572492,8.92049185345261,0.0096538428857147,0.0109877662206712,-0.0053675347730984,2.56870960568928,-0.574099229640317,9.40654475628234,-0.0873589098343511,0.0181585699467989,-0.0352980549558118,9.61073784666709,0.263991369376962,-0.687147910269086,SIT
0.71,0.0226813627348539,0.0087361031213168,0.0058377422847419,3.19134644895682,2.7563509187223,8.99615907687813,0.0038405431849224,0.0240445117134538,-0.0043898919940893,2.56126725639504,-0.545800295144072,9.42702817432224,-0.0732936712244411,0.0116878175138194,-0.0400510975570657,9.65864063516506,0.246255948701897,-0.699846716123551,SIT
0.72,0.0212985539985865,0.0018672909577529,0.0049569971797293,3.15413817755266,2.78576731843514,8.94428371737951,-0.0003963398991362,0.0196161362609032,-0.0081901366706319,2.52020435625533,-0.558211630544706,9.4635686884342,-0.0391126173237079,0.0082245761028663,-0.0310098410104344,9.73239926265412,0.269764836337892,-0.648604730549062,SIT
0.73,0.0105638756364719,0.0043992919937727,0.004138241287421,3.20192587159282,2.70168832018785,8.91011455062825,-0.0126958853622599,0.0205993006862901,-0.0036905734854137,2.49392570280005,-0.587703468130987,9.526699307324,-0.0058109955843382,-0.0042371995550114,-0.0198665354310604,9.77419990943361,0.334927216088702,-0.686939911930608,SIT
0.74,0.0074509220827255,0.0111879934572149,0.0037973508380091,3.21239865962145,2.70645473981135,8.95072956630008,-0.0084180927407067,0.0091063061662831,-0.0014858364894342,2.52888334070921,-0.595745140302964,9.5474001759427,0.0356624163449894,-0.0016626724659001,0.0000235105368645,9.78841413720386,0.480521953893862,-0.777037165543744,SIT
0.75,0.0107569398588432,0.0017712649432209,0.004948506499971,3.17802928793632,2.70042958624286,8.90188903740107,-0.0084180927407067,0.0091063061662831,-0.0014858364894342,2.52888334070921,-0.595745140302964,9.5474001759427,0.0582782012166977,-0.0054617901491192,0.0186629906633577,9.87765931657196,0.585584560055676,-0.724853393302213,SIT
0.76,0.0185663270858493,0.0067297131671731,0.0036320010858913,3.19765848243793,2.73850103477905,8.90716476937577,-0.0031205586820229,0.0049857611131903,0.0093393503225068,2.61697159550455,-0.660046061706442,9.57168689123761,0.0711748877053613,-0.0063669116474261,0.0357809540646581,9.84534476444874,0.690940715475274,-0.708908096526744,SIT
0.77,0.019548906215371,0.004556819400102,0.0065915885639228,3.20909160675123,2.73853436834584,8.87440864555182,0.0034760994086694,-0.0029211919267536,0.0109206121798798,2.56438299065966,-0.603741055441485,9.56796631062131,0.0738036086947161,-0.0090232437903772,0.0487372693308182,9.81995727558661,0.802576449252658,-0.765848020367609,SIT
0.78,0.0242450742780467,0.0163029743003112,0.0049335189255047,3.18547494218907,2.73768608974836,8.86594726692083,0.0166951498457949,-0.0126352938457556,0.011903668334789,2.58381800735254,-0.632677207089803,9.49483506715438,0.0510505287736879,-0.0112254011196087,0.0583819629463055,9.78848513051136,0.887893202678111,-0.728208730893398,SIT
0.79,0.0191691036269661,0.0241052320324211,0.001282350029733,3.16015770051479,2.74254336396014,8.93081673375313,0.0126506002404618,-0.0129796956907319,0.0171424483214619,2.57911769496085,-0.60411821369338,9.51458809028576,0.0006207828990753,-0.0059122938773697,0.0571459876295507,9.74865065546475,0.82824760693055,-0.870671747694352,SIT
0.8,0.0086561104033238,0.0249879651539371,0.007999313760094,3.1883200992408,2.72833879858298,8.92455498110188,0.0049140388817956,-0.0148250882724577,0.0150758340768619,2.60334989152795,-0.54152725443098,9.4949476093634,-0.0225672307497155,-0.0007866051246992,0.0507765152742441,9.74511358845992,0.754712277783211,-0.862062163408323,SIT
0.81,0.0080479594323415,0.0318919171153114,-0.0011589285255035,3.19474943632211,2.7617464938253,8.89014115322091,0.0072801062232412,-0.0131001415531135,0.0114737890807137,2.58416008319864,-0.497462062939345,9.48790867011117,-0.0484160608995356,0.0128631285716589,0.0261127608032163,9.73272471681896,0.641028617451652,-0.775451500532581,SIT
0.82,0.0084402993775339,0.0199790408654449,0.0056767028981922,3.1916852954226,2.76806902618122,8.963760110908,0.0105285589973329,-0.0041837545179456,0.0149472129856647,2.65451390714774,-0.463835504918216,9.49211333873991,-0.0613130698949922,0.0137762043288286,0.0089947080809123,9.77877773238754,0.58348930137603,-0.783735045974277,SIT
0.83,0.0055070012486783,0.0131768099207066,0.0072286618392767,3.27367823168045,2.74048365558537,8.95905616575304,0.00159636087554,0.0081014684018937,0.0147878162525155,2.63252892794238,-0.472815042876796,9.49851301885594,-0.0527722184683292,0.0133267308135539,-0.00543449989408,9.74410057264011,0.500222623023172,-0.769616922026047,SIT
0.84,-0.0009421038215589,0.0107828788485818,0.0052951146972629,3.22709825318334,2.73527192635535,8.94293817714882,-0.0047932881809388,0.0063722511151213,0.0109763059757542,2.57369115670332,-0.475332676175098,9.48463223665404,-0.0479532115921389,0.0093003536999444,-0.0205463585456462,9.69428835690636,0.48972978376067,-0.749573543084967,SIT
0.85,-0.0013431872703898,0.0050732633105804,0.0047636156025966,3.1755518131069,2.71908457196149,9.01733775206533,-0.0080145833174668,0.0035565887251003,0.005322479379662,2.53102697111001,-0.441464516420606,9.48433317116902,-0.0409007744615729,0.0070620712341011,-0.0259463137083027,9.6917549712861,0.487144182456616,-0.790457890876357,SIT
0.86,-0.0089558787647013,-0.0058371264514473,0.0094878997355216,3.1028110145984,2.69420445703571,9.01033388527828,-0.0059780451417365,0.0067776529126053,0.0016125421610946,2.51017526914603,-0.484548239718468,9.44741582203205,-0.0332571447537997,0.0035995902364697,-0.0233784737812372,9.75375453947969,0.491150670998174,-0.750914296994745,SIT
0.87,-0.0101281927255783,-0.0043678572036809,0.0083272430768102,3.09989916174351,2.67102731263922,8.9549579689908,-0.0052894376029178,0.0098848140187344,-0.0003507702799839,2.53862314462089,-0.517687111539556,9.50099563745677,-0.018487419572259,0.0000119751875881,-0.0120349155351189,9.75317776130588,0.522124237306581,-0.7968270914204,SIT
0.88,-0.0134532244545232,0.0007427477528653,0.0030461164542433,3.10759951755705,2.65188388353458,8.94036142929368,-0.0103755545796899,0.010130685504522,-0.0029329405119509,2.57102029743447,-0.564324916022159,9.45491820980923,0.0019158396058408,0.0053274778036508,0.0030698414847906,9.73610373398122,0.559814344381012,-0.785854525007232,SIT
0.89,-0.0099426507233465,0.0029921477051166,0.0013171734819312,3.11042214800489,2.61647300169205,8.94341251922519,-0.0050275796305365,0.0124470316831621,-0.0069415876248202,2.52379502177455,-0.60307761698554,9.52412859660115,0.0106286795939727,0.0061861354562136,0.0196475509633157,9.76167760076328,0.629211806082066,-0.767044728533677,SIT
0.9,-0.00310942263724,0.0034597011483366,0.0022626262209249,3.11463563399512,2.63222226865581,8.92614472006234,-0.0066148062661779,0.0101096694775389,-0.0112577321856284,2.53879846812899,-0.652865801670609,9.50773834681365,0.022140585802994,0.007506956480326,0.0336797199265311,9.75845410078631,0.679423134461578,-0.900818934800901,SIT
0.91,0.0029142066321137,0.0024968363331879,-0.0056774169721503,3.14748255594754,2.58265582910757,8.92228993755761,-0.0016253926279341,0.007822654773149,-0.013194637596861,2.49586321857641,-0.618271801018413,9.50753270037869,0.0188328065117863,0.010398872534951,0.0424188804228048,9.75926370839316,0.646489047767383,-0.853857567059681,SIT
0.92,0.0091677471489653,0.0108457083813396,-0.0071570240672536,3.15856621892431,2.58187556544287,8.88994812815418,-0.0046522858111172,0.0090901300370522,-0.0098109001084407,2.5402671998033,-0.614171384549846,9.57482325960674,0.0188328065117863,0.010398872534951,0.0424188804228048,9.75926370839316,0.646489047767383,-0.853857567059681,SIT
0.93,0.0171669473640274,0.0165020192822461,-0.0102604883720032,3.16517742078269,2.62174231486658,8.92797689352619,-0.0053407764869104,0.0059824748714182,-0.007848334737924,2.60040623790373,-0.592539720771571,9.53274587100336,0.007663340961032,0.0164627636010244,0.0412064822746397,9.76055342544611,0.584234125530365,-0.760171342639957,SIT
0.94,0.0218502641930737,0.0139526132159023,-0.0082186462958926,3.25349785391022,2.71916658658638,8.93794963799222,-0.005369121880465,-0.0001181676082729,-0.0056691596818175,2.59138221751641,-0.6041135243778,9.48609240311044,-0.0081849264482108,0.0216970711300951,0.0307520321645468,9.70376953467355,0.589800042265882,-0.713393579268905,SIT
0.95,0.0228141191847455,0.0041467098512857,-0.0067786730865135,3.24802700059914,2.70502712346907,8.95518324589065,-0.001114023343949,-0.003652172379284,-0.0026656089837284,2.56236019855953,-0.571716990685021,9.43262256591306,-0.0205156394963787,0.0272755287953011,0.0162710152753134,9.7640951431424,0.554656686166398,-0.667708655631798,SIT
0.96,0.0173645341457007,0.0038880484569005,-0.0016273506319831,3.23211992887788,2.68643438770036,8.93169437056598,0.0005647426504175,-0.0050339014786706,-0.0043034850752117,2.56847193073726,-0.513028831922149,9.44285997394622,-0.0300303480391886,0.013583531760327,0.0010538371154732,9.77156485217141,0.532796306719551,-0.691847328573755,SIT
0.97,0.0085911219902221,0.0087383825197534,-0.0017608502485476,3.20127496399872,2.70295656643898,8.93814958645762,-0.0021044980035119,0.0008371825443906,-0.0029903235286265,2.52211932911298,-0.483967611318842,9.41904861983674,-0.0222928565219541,0.0170909457327293,-0.0111420049982291,9.70271740041127,0.524376626711778,-0.656639795166833,SIT
0.98,0.0054831671152794,0.0088707995095326,0.0031056802458296,3.18418204003183,2.68873983755844,8.98818111755636,-0.002406838927817,0.0084343000922519,-0.0052776238098189,2.51458686341158,-0.509547407469391,9.45215010257436,-0.0156392831712361,0.0054419924998753,-0.0233001763228622,9.68121452238675,0.524059193431436,-0.682390827546841,SIT
0.99,0.0072332484610746,0.0028501473492264,0.0040891176458049,3.19471915187215,2.69335939361451,9.02882350604992,-0.0090478764352244,0.0182017208904386,-0.0038828351783321,2.54969545431457,-0.517096038668625,9.47286446918239,-0.0058631362771897,0.0045641871612693,-0.0278360515473637,9.63124424530948,0.514466990743355,-0.663254147658297,SIT
1,0.0037377174435111,0.0082358937607243,0.0073367157303378,3.18340744909654,2.6895079577788,8.98822568190829,-0.0125473828451309,0.0207829095072918,-0.0021507329098664,2.52484672469716,-0.580227501608492,9.49258017550384,0.0063483268610276,-0.0080973024907953,-0.0188020900079258,9.68056884199409,0.55793844244711,-0.728225406447189,SIT
1.01,0.0000361191080154,0.0052861269696113,0.0108616969615708,3.14631402257009,2.71690875179546,8.93679703550782,-0.0183204359795422,0.0179190892767528,-0.0027741228406459,2.53487617646604,-0.617805970999907,9.57601813731021,0.005693357307294,-0.0197252239292805,-0.0066750280845854,9.69013491880088,0.543090743396817,-0.71398455537738,SIT
1.02,0.0000357736122054,0.005285981499692,0.0108622690822003,3.14459914966009,2.66590727744232,8.95723881532349,-0.0198389720537895,0.0115213611514591,-0.000393797986007,2.5406112670425,-0.594103678203229,9.54329540627603,0.0085502125303735,-0.0142126037094216,0.0022873377860738,9.75118289242869,0.602641255248855,-0.769170966632945,SIT
1.03,0.0041221630305983,0.0063098692245523,0.0063498874655007,3.18641389929015,2.64894338875286,8.91839702542829,-0.0083955145598557,0.0011481094604715,-0.0022886235634531,2.57634717575811,-0.602548370065167,9.56379861287183,0.0043892013877779,-0.0153544288186506,0.0044018016946901,9.7770399069575,0.643724131332086,-0.706120587262106,SIT
1.04,0.004311899263034,0.0103384195956739,0.001945523076434,3.20568523726365,2.68608567835612,8.92407210845271,0.0031891965843985,-0.0090437777864082,-0.0026405951302604,2.55191611651541,-0.564504116900075,9.53363930398338,-0.0073499565776877,-0.0079697375717458,0.0154453522430616,9.78148380939864,0.682094002763791,-0.669654745602439,SIT
1.05,-0.0013479527683045,0.0084021657973055,0.0021563210075888,3.22928417809867,2.73941706366602,8.91230166420285,0.005839995131452,-0.0069543024801549,-0.0031540367170556,2.60200980711555,-0.573156067267099,9.5008953546594,-0.0194425268634034,-0.0050246106073705,0.0110024095066662,9.83823956300017,0.700943406638826,-0.761319085373866,SIT
1.06,0.0031402726456925,0.011807167176949,0.000784083007478,3.21361712314394,2.77530484291644,8.94225700848624,-0.0004241721213825,-0.0005431533065893,-0.0046286475017481,2.6805640250766,-0.547276671036526,9.42899295499386,-0.0208211167511866,-0.0027724465618967,0.0079145851744244,9.82449475319737,0.647811813987828,-0.768585048941728,SIT
1.07,0.0003995942517538,0.0057088516981471,0.0005330411568428,3.20190767595314,2.77127677113596,8.901856706995,-0.0098583432558738,0.0069520391700421,-0.0042628521387409,2.64685313590802,-0.501786685071937,9.47535311554182,-0.0281065820009393,0.0021145810906947,0.0032669521767853,9.83224742158735,0.597202688921462,-0.748564256578791,SIT
1.08,0.0007846448588362,0.0037835824691245,-0.0004554775910169,3.21087316242977,2.72483321626064,8.96290664826334,-0.0134719446314376,0.0154524744195683,-0.0062510237728256,2.64144438638315,-0.508354908937934,9.45223430116444,-0.0324196884733208,0.0165636894895502,-0.0045248481297335,9.81528660745568,0.634690219729916,-0.736767647986672,SIT
1.09,-0.0046687481088086,0.0101826203252673,-0.0005217715824471,3.21764032948843,2.70674706905147,8.94835854448691,-0.0140844427462667,0.01658675562282,-0.009445336063687,2.65584380010852,-0.472747262538749,9.46633752903944,-0.0349905228709224,0.0203120783486508,-0.0104084069380532,9.82373358832461,0.650455416555713,-0.686054888202513,SIT
1.1,-0.0013504037331885,0.0117291369154393,-0.0004488963492757,3.18933647528578,2.6875229624754,8.95808563075495,-0.0156229091567952,0.0181475116297203,-0.0062654783300824,2.56730330368854,-0.510710203600414,9.49178022634922,-0.0278600783426088,0.0240941455171541,-0.0174301263499415,9.87714657449197,0.668873502243427,-0.737368443360723,SIT
1.11,-0.0029233936869294,0.0141438756759936,-0.0073571462771584,3.19099829508189,2.65316166427413,8.96128200315424,-0.0203757902032506,0.016895045570349,-0.0087456659922563,2.59177288307588,-0.497439826654852,9.50924185635682,-0.0183369776382785,0.0318201107219213,-0.0170965849478243,9.82946072747656,0.656515049170217,-0.87219318070559,SIT
1.12,0.001744746329348,0.0072888666764027,-0.0094415598474663,3.16699051902104,2.65077091546409,8.95337548905424,-0.0241858713002621,0.0130110140101689,-0.0079250704171211,2.58603593868448,-0.504929928786495,9.48615484574757,-0.0110440750173049,0.0407897255411925,-0.0089158150559695,9.78020663201938,0.616541632166771,-0.803846957762347,SIT
1.13,0.0048706985527402,0.0081345539040757,-0.0075705413416199,3.13370538774576,2.55960685845839,8.92763384722931,-0.0215350855868662,0.0151010248781409,-0.0084371770898537,2.58347720967724,-0.559916050760965,9.4993079926808,-0.0166545765220336,0.0428131245168473,-0.0065024930902349,9.8190193294378,0.582305586947636,-0.783426186405619,SIT
1.14,0.0075934477097136,0.0132530118104582,-0.0140504660154832,3.11413704970107,2.57425815988645,8.90199040103229,-0.0200795911746359,0.0255646901278656,-0.0175113642006922,2.54249742853071,-0.574388815779595,9.53556521848524,-0.0096490958867578,0.0356023460762794,-0.0031760383808682,9.75697171786924,0.610890681139279,-0.864658516341034,SIT
1.15,0.0130741071659615,0.0154684024360037,-0.005724074454534,3.09620702533147,2.56068078767709,8.9520931261476,-0.0211261491525757,0.0178484434010933,-0.0134862416383876,2.53336247438842,-0.601507710065827,9.568926330227,-0.0044631270540848,0.033078496432283,-0.0001275986430111,9.71473041975096,0.577794475853959,-0.869109058043572,SIT
1.16,0.0202846498069285,0.0206644714743314,-0.010964524447333,3.14797799997264,2.60614191693212,9.00667588578057,-0.0232040917615825,0.0107283658652822,-0.0172852724687897,2.53799212582761,-0.630720296324906,9.54910440387367,-0.0062540513625721,0.0318894418989364,0.004906741404021,9.73878538359908,0.584694269621037,-0.797004200339718,SIT
1.17,0.0157959874508005,0.0172582994135627,-0.0095934036742582,3.1852325402979,2.62550242343985,8.96516002402242,-0.0199428654428688,0.0116827913894927,-0.0146017326891108,2.57182103043305,-0.625068193235926,9.49005746234339,-0.0051552393649162,0.0273133621768239,0.006669188030951,9.76016231800026,0.615428653955626,-0.813215911713577,SIT
1.18,0.0148200267673246,0.0127741704131387,-0.0073404049114382,3.14752103843466,2.71103309535012,8.96625344039632,-0.0209620672073854,0.0100681154331479,-0.0127510825799253,2.55038016120417,-0.5828370107099,9.48358098275055,-0.0051552393649162,0.0273133621768239,0.006669188030951,9.76016231800026,0.615428653955626,-0.813215911713577,SIT
1.19,0.0136500852042873,0.0109159514286964,-0.0058966170855321,3.12051744878211,2.74418043581147,8.95519803566817,-0.0160199537633892,0.009645012812654,-0.0117037968535078,2.45826253244771,-0.626743367534226,9.48521411281764,-0.0130524711509237,0.0186034464184728,0.0036473358912728,9.75337177569756,0.60676521305305,-0.737525787763539,SIT
1.2,0.0173578433304763,0.003886652847565,-0.0015968864584898,3.13961783484497,2.7826044961109,8.96052479536055,-0.0046975913509562,0.0109527784895729,-0.0068283832164226,2.45301929988667,-0.633053188280754,9.46202520337328,-0.0211386503081722,0.0205308360368843,-0.0005637419584569,9.7559011349798,0.6116129924585,-0.692640136896301,SIT
1.21,0.0161858649268854,0.0053540899145923,-0.0027591523195853,3.10840012172452,2.7430370041469,8.91404196878505,-0.0086713995880149,0.0148445619294366,-0.0067481149902164,2.47666744059233,-0.671782502848672,9.492296533068,-0.0204376894021051,0.0263056043855673,-0.0073655030482448,9.70611552783089,0.599915204365855,-0.671833556937432,SIT
1.22,0.0138523875221427,-0.0050112485526633,0.0053378895089584,3.14506050416897,2.71690396085617,8.96533975805962,-0.0153732668139081,0.0123954763027645,-0.0010086483010265,2.48403599597809,-0.661725484816887,9.53931145262374,-0.0245305071579093,0.02720088382495,-0.011318535227403,9.70422368917249,0.56675882476059,-0.664925385456444,SIT
1.23,0.0134625790556779,0.0002390531433805,0.0037202702479473,3.1225833760612,2.71535361757571,8.95660904634355,-0.0211773833413104,0.0056390057369965,-0.009148522741291,2.49631112443881,-0.665201561760496,9.48645090810604,-0.0165464376697419,0.0251344905348231,-0.0107973053275347,9.71125359062986,0.605380805650058,-0.780800626350764,SIT
1.24,-0.0001844249618809,0.0069345729731483,0.0033173674570188,3.15604956239255,2.72270232089463,9.005469496238,-0.0157652348440909,0.0038998104820154,-0.0064492156723167,2.43787818392106,-0.668869991918853,9.47216198933639,-0.0128351835351891,0.0316576918665714,-0.0127529511653918,9.67340147416541,0.583263530054647,-0.702072219862473,SIT
1.25,-0.0011610124735823,0.0057769168814316,0.0029629141043471,3.15212831963263,2.70036719810715,8.95025614379697,-0.0072333765959541,0.0029365147885585,-0.0026063012666806,2.49130387600712,-0.673277608031645,9.46307283967016,-0.0128351835351891,0.0316576918665714,-0.0127529511653918,9.67340147416541,0.583263530054647,-0.702072219862473,SIT
1.26,-0.0021434796354081,-0.0063395215743169,0.0036939781818069,3.1506892512394,2.64948172252086,8.97064253019899,-0.0069021208085076,0.0014404842162558,-0.0024998256842657,2.52741394281275,-0.681011329077854,9.48356477421096,-0.0128351835351891,0.0316576918665714,-0.0127529511653918,9.67340147416541,0.583263530054647,-0.702072219862473,SIT
1.27,-0.0048705239878156,-0.0048034507592355,0.0049602411013251,3.14786437604398,2.62685845476105,8.91512669750806,-0.0025705080959273,0.0021569455483824,-0.0046438030337793,2.50080770386531,-0.61010788299796,9.49706913124909,-0.0065970775126551,0.0231716884907339,-0.0106378445209461,9.75989626368603,0.547982327357994,-0.725649786525255,SIT
1.28,0.0044996148311602,0.0010634764223906,0.0079739087858217,3.18295067232345,2.62766595419194,8.89099905884498,0.0008008963811647,0.011247666028218,0.0003980129891392,2.55512129268259,-0.560503830433934,9.47535120107133,0.0047805714624133,0.010775091750574,-0.0081626179033489,9.71973431335356,0.53137397943946,-0.703148062235669,SIT
1.29,0.0105410311626938,0.0043987962246272,0.0041779326706341,3.17093148613291,2.62974432638388,8.92324658559388,-0.0024049346641555,0.0084392565459292,-0.0052701660540971,2.58928230376347,-0.620702759115699,9.50887878620512,0.0146644994709207,0.0169790834332401,-0.0072100683818429,9.79328576455412,0.551342500455649,-0.651145259449985,SIT
1.3,0.0136557295136529,-0.0023882553941442,0.004531838022046,3.18477050741132,2.60063162455179,8.96639004842167,-0.0011860586154998,0.0061626619167613,0.0011174810487407,2.56377985816986,-0.582542228996959,9.47907368805207,0.0112214598259438,0.0157228014961125,-0.0065932914250706,9.76673824809303,0.575914340027982,-0.608423292284309,SIT
1.31,0.012881748823316,0.0014631091499245,0.0065076216697483,3.21383796050202,2.67123646918152,8.93637518273016,-0.0078955484077845,0.0059280242428969,-0.0028205978219632,2.56321177433798,-0.582950831350846,9.47920220021487,0.0085002144284905,0.0143557432061991,-0.0074580387452535,9.77626242209096,0.589699242112329,-0.63749404415919,SIT
1.32,0.0118929614829276,-0.0006799899071741,-0.0005803038536032,3.22926220511216,2.69282773454595,8.95912255958979,-0.0081734358395583,0.0055704100386106,-0.0059080842198059,2.53070128430317,-0.570938599612789,9.48219147513852,0.0110392826701036,0.0095531634776123,-0.0086546408137273,9.78358171222617,0.59860160449478,-0.708801227637643,SIT
1.33,0.0120839165564,0.0033432814694192,-0.0049845234893325,3.16512576808584,2.7024392545521,8.91641038798463,-0.004776054511371,0.0067037246782118,-0.0016766018334158,2.54040020071899,-0.593363814382482,9.48560657838652,0.0148412476346243,0.0122293758190616,-0.0113440184101127,9.74530361362406,0.605336543068897,-0.678090305727982,SIT
1.34,0.0195007816276512,0.0035703894893119,-0.0000704418150298,3.14987668226841,2.73983977799205,8.94564437681412,-0.004001937233284,0.0118474430638237,0.0008916180915541,2.58485713900061,-0.675867035593589,9.52239044342931,0.0143019625820911,0.0185128908718645,-0.0078044995876868,9.7358684670944,0.593020960360587,-0.646196549032,SIT
1.35,0.0181352760547262,0.0076623807661062,-0.0020444809841714,3.20691216891966,2.74518994446559,8.92952165798525,-0.0036969287256873,0.0042478031924064,0.0031671932763834,2.65787170853729,-0.637482696459347,9.55080814758078,0.0165687851297817,0.0113884678587554,-0.0103240223299903,9.78568427804282,0.635315059795811,-0.709207294696979,SIT
1.36,0.0171580863603941,0.0065044934758228,-0.0023976719692915,3.21365740874554,2.72887554327355,8.91449596719821,0.0001925198567493,-0.0016745439667213,-0.0014372639641896,2.58516647942044,-0.623412903626705,9.50982129742675,0.0195643376314643,0.0150817169666447,-0.0081375186177219,9.76872486037804,0.644022155560145,-0.651241878443497,SIT
1.37,0.0140537745100109,0.0142791866802547,0.0039793870092023,3.20824750041255,2.71391937800797,8.9319920987628,0.0044444984894482,-0.0052078471257953,0.0015703865222325,2.54612418171165,-0.568534049210714,9.4530815423188,0.0185758930262375,0.009926170382878,-0.005318927193931,9.71880359411619,0.632260078957512,-0.631891430783321,SIT
1.38,0.0060497257343361,0.007643463376149,0.0003313619247861,3.18000821357626,2.69579221677637,8.94136905371494,0.0002461538864236,-0.0035278290119279,-0.0044182142405991,2.5157694265528,-0.502553518059344,9.44309344999527,0.0185758930262375,0.009926170382878,-0.005318927193931,9.71880359411619,0.632260078957512,-0.631891430783321,SIT
1.39,0.0044946880980138,0.0043908571880032,0.0053690679744105,3.16260175931818,2.62496669030964,8.93878441585118,-0.0045834672244485,0.0050290892579817,-0.0031140227552678,2.47776374090626,-0.46256497793462,9.46607745184806,0.0184913537450769,0.0108332417249324,-0.0019247906012094,9.74319733487831,0.632652702220992,-0.760198720550156,SIT
1.4,0.0048905261892944,0.0067762589858378,0.0085082587064316,3.12752182889292,2.62418204659586,8.96289410655889,-0.0064325915727976,0.0141831336109538,-0.002209126716675,2.54347952151994,-0.449838373844697,9.52739329080425,0.0149619846343465,0.0104808540161124,0.002087335362975,9.72089223989891,0.666594284203267,-0.634274300822846,SIT
1.41,0.0082054957230205,0.0083220515598327,0.0085872505848222,3.13902419109689,2.62284878779424,8.93060952081899,-0.0122286098708775,0.019270454567407,-0.0020368991298632,2.57818058888885,-0.45780237303459,9.54828765179777,0.0077021019232277,0.0124335852016791,0.0000695085314038,9.72311314596041,0.6714512297953,-0.59130496929971,SIT
1.42,0.0080196710749738,0.0152582503131972,0.0119029679066656,3.14616789706098,2.66182529597431,8.96857498597143,-0.0180510480165687,0.0182537134624955,0.0003034420395405,2.52266358973932,-0.455819553859845,9.55774472243554,0.0078857592059841,0.0047322771337196,-0.0013947747601028,9.7783533521844,0.686802704547308,-0.72311293030701,SIT
1.43,0.0130923442323936,0.0184197463790921,0.0144920515531486,3.14549470354772,2.71890707349909,9.0213813091187,-0.019348138960776,0.0162803594076788,-0.0009355858605655,2.50953709208195,-0.488759053955381,9.56755001369437,0.0120540732557858,0.0058816386773303,-0.003494527911651,9.70924381342258,0.677619358313908,-0.689587932133493,SIT
1.44,0.0138652504978118,0.0178886122448954,0.0099128084662977,3.17443739071228,2.70439024418608,9.01514222755054,-0.0262203248185777,0.0097637674163448,-0.0042543532708086,2.51598194076667,-0.551237710979467,9.50415805761009,0.0096857062150818,0.0088717613940002,-0.0090941079070049,9.73381402180547,0.649076709113584,-0.771986202975883,SIT
1.45,0.0109361504273904,0.0144166099440316,0.0088483806307921,3.15157115603803,2.69661242127928,8.93402178859168,-0.0209762669678393,0.0158024271716972,-0.0022809047126634,2.56729950973964,-0.609869607694456,9.50804965133412,0.0064192284297829,0.0028538170321775,-0.0126025978156877,9.71675097838266,0.65805545851321,-0.71470311926146,SIT
1.46,0.018727782543193,0.0150481505937391,0.0034423965856065,3.12761559122282,2.69511764915569,8.92577473186256,-0.0252815730849492,0.0211874817717903,-0.0023086960245542,2.65006720009289,-0.681132386227856,9.50921433329701,0.006054822772378,0.004381654185183,-0.0131941162130958,9.75174393988588,0.684599499103437,-0.633930726792995,SIT
1.47,0.0206770353511976,0.0140399679970442,0.0067653909980898,3.11447146838901,2.69840178932869,8.95803483929946,-0.0218032459608349,0.0125109388980136,-0.0018725762121036,2.64847920790173,-0.68331574094671,9.50950008512982,0.0022454485927034,0.0046486910226906,-0.0131675686439741,9.78035538853136,0.696038833583672,-0.678844833903538,SIT
1.48,0.0255410672428958,0.0111983786519227,0.000294933353685,3.12252027415268,2.73295324633279,8.92259782658031,-0.0148480096634001,0.0092193083916778,-0.0023486198597611,2.53318151486107,-0.722118712246173,9.4373280779694,0.0004275760746198,0.0093418457642969,-0.0134600430687135,9.77700633402245,0.728540299223537,-0.56804213638846,SIT
1.49,0.0288473816781703,0.0084283635217495,-0.0037460225243816,3.06400230442109,2.73187418240675,8.93785792849318,-0.0101275359095975,0.0065925889359494,-0.0073638113549205,2.50047119572878,-0.710527073189059,9.44029927820395,-0.0048352505210137,0.0127738403535573,-0.0131348723657506,9.72880430072915,0.780905536443095,-0.599100071282284,SIT
1.5,0.0255323329932735,0.0102038496128024,-0.0064345007333063,3.10073112703173,2.70110175838432,8.91627889386972,-0.0064842544470328,0.0041991742558628,-0.0075487302691802,2.46375270418277,-0.703971050119061,9.41983193573263,-0.0099532003618482,0.0129514603944709,-0.0081530728497551,9.76730943020638,0.747404585082094,-0.58062529075812,SIT
1.51,0.0247512928533347,0.0163829922594539,-0.0138049659155758,3.10836223654855,2.73622196972499,8.88078243539958,-0.0075869251784252,0.000553727195002,-0.0102277170454263,2.46785209619026,-0.698925254651732,9.44324516660526,-0.0071868414462376,0.0178656064889,-0.0045654212500145,9.77058457477003,0.746495223396463,-0.734666533524847,SIT
1.52,0.0192963162486134,0.0194617645384988,-0.0112840662178327,3.17652316652481,2.71830373426919,8.98159843589866,-0.0116742640907616,0.0081428671258251,-0.0041836100394052,2.50505792830783,-0.721524190616111,9.54344270469212,-0.0004730584857864,0.0222032812300936,0.0009906259184037,9.68591526529036,0.679854945922169,-0.748848215770477,SIT
1.53,0.0128665331627599,0.0213834512476336,-0.0091211333283573,3.25358482701086,2.73238501315063,9.04745113156886,-0.0073408934034709,0.0088636654385748,-0.0063215316656434,2.57375567193991,-0.688999239997905,9.54861288783275,0.0033372022832148,0.0219386948517446,0.000964614695871,9.7170072372669,0.665831248347013,-0.703936406318241,SIT
1.54,0.0040937765864283,0.0053252277363574,-0.0003722698906508,3.24601706210293,2.74520519711483,8.98937946618769,-0.0054113894978504,0.0157995933033854,-0.0040511327104032,2.59731694914625,-0.659988508080598,9.48655852512413,0.0034312632356208,0.01808773229657,0.0002331115760607,9.74197052176208,0.607529862123342,-0.738878245375781,SIT
1.55,0.0001970608269121,0.0016925551431326,0.0049365184431386,3.20927606018615,2.77257773583409,8.93752864161851,0.0050504909645257,0.0099404105617479,-0.0062538914840714,2.55690311130058,-0.67293602935775,9.5225399296082,0.0061522188895117,0.0194609563014354,0.0010975877008501,9.78451041649687,0.640851027115823,-0.728971871707361,SIT
1.56,-0.0042870500962954,-0.0083438449354459,0.0115143145305939,3.18991899116076,2.7352052293998,8.93206372412824,-0.0045810638252626,0.0050296403352489,-0.0031154539992469,2.56769293999,-0.641611217440713,9.51334423436022,0.0071525741246573,0.0187305193033455,0.00360243294153,9.81555951143594,0.626659582639549,-0.684342356132556,SIT
1.57,-0.003701010326596,-0.0052595882028763,0.0128565800476056,3.23025652408661,2.67291521338886,8.98677219704955,-0.0092158981832545,-0.002151293539848,-0.001903033711887,2.53853980718554,-0.60935500362524,9.45998430392828,0.0086065920129285,0.0155651706756884,0.0033045767912618,9.82934622269173,0.649490539823157,-0.629316885480581,SIT
1.58,0.000199802651943,0.0026882972295171,0.0116720484968316,3.20002392754557,2.63107024633152,8.94070818251049,-0.006292572988926,0.0002975113496477,0.0006846548998942,2.58090628793677,-0.644611133695974,9.46032900844467,0.0068841513190373,0.0214541412890858,0.0137846986914816,9.80068031822642,0.667567712413876,-0.62843119064728,SIT
1.59,0.0017590672023488,0.0059335623289729,0.0066352963858931,3.19532322008961,2.61459062662141,8.9584395745706,-0.0003087903560568,0.0053719676596054,0.0074044820834986,2.58485978707402,-0.639547235821652,9.48378957281462,0.0059734018167902,0.0242248552169834,0.0052172266596508,9.81805725705171,0.658610129456612,-0.682960237199046,SIT
1.6,0.0078005448715323,0.0069329806555107,0.0121973241780162,3.13116365267685,2.62308221990214,8.91590201118068,0.0043564016294467,0.0045977425312015,0.0053732577678725,2.52514523878775,-0.694734013340695,9.48213663331161,0.0047947946617396,0.0267728836984086,0.0094985725397101,9.78949825300138,0.647670901409662,-0.635234721807917,SIT
1.61,0.0099414947998822,0.0056271874860762,0.0069881726753521,3.11095408435319,2.58665703574894,8.91045255484236,0.0037507446852087,0.0057394708541796,0.0021793674845376,2.51259125151468,-0.639664219425115,9.52257596935648,0.0069741492479891,0.0234968182379026,0.0077208470797225,9.73567865807288,0.624360751020165,-0.698582661881203,SIT
1.62,0.0210505777928285,0.0121102386442751,0.0058010173551703,3.11945735989757,2.62037482263673,8.87508159330296,0.0056248056853187,0.0004645599317814,0.0087781204579451,2.48450158866403,-0.621236001544632,9.54893744305448,0.0097879275572519,0.0210174049525168,0.0078575530084305,9.75109031066656,0.610476732017687,-0.795112663976806,SIT
1.63,0.0214404681552756,0.014498216735528,0.0089434230091438,3.14625587204314,2.69761294981607,8.91806586526791,0.0087198511973608,-0.0026364019410462,0.0024177981405372,2.4452915325929,-0.565929032342998,9.49232480049861,0.0182262957222553,0.016521333784692,0.0056054542731518,9.74928605726398,0.604637445882563,-0.835301632537605,SIT
1.64,0.0226114920879075,0.0196684008096177,0.0048939580377836,3.17558922501476,2.74066984359909,8.96406510987635,0.0075038022358053,-0.0025815764009899,0.005703423000696,2.47150508197672,-0.550503606397108,9.50959763249766,0.0182262957222553,0.016521333784692,0.0056054542731518,9.74928605726398,0.604637445882563,-0.835301632537605,SIT
1.65,0.0163727322070895,0.014654202607459,0.0037405878699874,3.17458177605976,2.7989856783915,9.01646610333443,0.0058763679733858,-0.0030580310795075,0.0043567674283239,2.48625386394281,-0.566414879224748,9.5362458681076,0.0270278097500904,0.0134424830082886,0.0012804991794533,9.78421743620891,0.629505605410447,-0.753418245597013,SIT
1.66,0.0115002650131423,0.0131866849998904,0.0060821317638987,3.1370401034513,2.82732179358656,8.96455728022122,0.0042488826778615,-0.0035344661241198,0.0030101954931277,2.53179423793504,-0.580376726221167,9.48041509932192,0.0287526622314608,0.012603166449818,0.0023048910452808,9.76907332494005,0.671367168777621,-0.699870549654495,SIT
1.67,0.0070134033925708,0.0064741168864429,0.0100495483813246,3.10731246217283,2.75848220313903,8.99447935569316,-0.0000568532449898,0.0018501853945674,0.0029823944226269,2.54935011935549,-0.576476409267176,9.4508796201879,0.0278485005184849,0.0094805780052864,-0.0009299273067957,9.74993535901376,0.674053610062972,-0.684219219076531,SIT
1.68,0.0068118770008732,-0.001856047051542,0.010335486792964,3.05434618758451,2.77155101403477,8.99233502673355,-0.0074803772369861,0.0064593310355515,0.0018056239539366,2.56345046717076,-0.593317166864378,9.47764547920403,0.0191392607069958,0.0087085018827403,0.0026650556797774,9.75197794461168,0.678922778164434,-0.641561347701647,SIT
1.69,0.012461685160496,0.0000716076271883,0.0101524403180725,3.03150151067879,2.71274704048163,8.93132307292257,-0.0104326730142493,0.0119659792510558,0.0000360052217142,2.55832561787281,-0.599674827373815,9.45442054889729,0.0155084590355006,0.0122124964027608,0.0073973260056835,9.76366832799531,0.696504458882872,-0.62920886260316,SIT
1.7,0.008370172013188,-0.0019324903695263,0.0079109781017984,3.05633809440124,2.76655803357618,8.91875625283583,-0.0054932428384996,0.0115447250690059,0.0010933485625315,2.56022474494857,-0.648048199015332,9.49074083456955,0.0179582892515559,0.0083167351307073,0.0096115679673834,9.78107149994909,0.716552258850839,-0.731211429170197,SIT
1.71,0.0073992960947455,0.0002282290255871,0.0049417423405465,3.09601236977641,2.78414583152648,8.87691224350066,0.0002741067204736,0.0144141368585429,0.0017423530870075,2.5849696722161,-0.633583489653319,9.50835638546442,0.0131504364193786,0.0063680233413568,0.0097931720486681,9.70626029254129,0.732492151276079,-0.629664008527363,SIT
1.72,0.0087640842199006,0.0037746207030663,0.0084393615565113,3.12913003542586,2.73496836200725,8.87340244341145,0.0072002441269623,0.0050183718062873,0.0034348054187061,2.5925062411288,-0.622328255414146,9.5554505970973,0.0144192723675079,0.007967795379228,0.0136177846096411,9.69483443831833,0.742145029700473,-0.686727116859585,SIT
1.73,0.0085742536511482,0.0053963668464548,0.0008881206943365,3.12426019045583,2.71935156605384,8.89095058387282,0.0107639592339427,0.0005981387093341,-0.0012745794597909,2.50648054657091,-0.605467831161995,9.56734650410397,0.0139650497385643,0.010408913876244,0.0164148438434133,9.71423502908533,0.737615581188543,-0.700690839659227,SIT
1.74,0.0142238180119927,0.007322835984261,0.0007057819517256,3.11955279957902,2.76085258179684,8.96082435128145,0.0085604244054671,-0.0066917407297889,-0.0066331439338033,2.5170600142349,-0.558556347500616,9.47832446337414,0.0015369543597108,0.0119359967017484,0.0139681732745373,9.71437187133911,0.707034679041641,-0.653442761938321,SIT
1.75,0.0081853300390388,0.0073242691722683,0.001873343142048,3.16451166363036,2.76707548532459,8.97744778472551,0.0022964221637215,-0.0143477747640535,-0.006767327948926,2.51631702866189,-0.524984102636947,9.52162592726069,-0.0076295418402962,0.013607578702422,0.0203598904226839,9.74338751116867,0.686386332009016,-0.651187896055626,SIT
1.76,0.0046765069909125,0.0050883925304585,0.003584918162764,3.19755849037097,2.77463405323725,9.02647813358901,0.0047004811151433,-0.0065034383708205,-0.0125214921939441,2.52035810292703,-0.504212732594283,9.46517304884189,-0.0127050905462926,0.0152193030148253,0.013884447380537,9.76275317312494,0.652742289483276,-0.618239909469133,SIT
1.77,-0.0000047595301037,-0.0033167348367801,0.0026133188638809,3.19470509892732,2.80902400450342,9.0234546977189,-0.0092677619467114,0.0019267619816545,-0.0085950621256085,2.56411204442719,-0.485622377646882,9.45287397255108,-0.0237706364077421,0.0174377426734258,0.0118670329024571,9.75521695281411,0.64369233601486,-0.544123078709983,SIT
1.78,-0.0095467212448584,-0.002233678291769,0.002877675057464,3.19174643242712,2.78602536312944,8.9681817373133,-0.008938304916273,0.0144909182076158,-0.0098369405606249,2.54766417120096,-0.522915590510227,9.43902202022956,-0.0266708342168047,0.0128262583961197,0.0062890804925787,9.81103098263436,0.599794436440036,-0.582423605039188,SIT
1.79,-0.0105249377668172,-0.0023887714733526,0.0092587960612137,3.15225591408746,2.7111224179095,8.95764533291664,-0.012834103756648,0.020406024941191,-0.005233705542787,2.59680131869562,-0.547317000887772,9.48667515007244,-0.0204102242664359,0.0116055809693812,0.0058170825142187,9.76106823385116,0.587130583262234,-0.563078180981438,SIT
1.8,-0.0060466381361056,-0.0023138658872044,0.0105184942442629,3.17968305633307,2.67217990573018,8.89616219654658,-0.0140508025395573,0.0204603884725341,-0.0019488669482244,2.59911288542528,-0.543015436390016,9.5105430333365,-0.0117010506077639,0.0094289934594803,0.0048946786107544,9.76115882727002,0.586698106485396,-0.56195734161006,SIT
1.81,-0.0007867250758492,-0.002778172226505,0.0071955853840049,3.14356078234978,2.62026097578528,8.94074674399283,-0.0108444456772926,0.0114318748295738,-0.0046000928438837,2.59217651934667,-0.60268748471306,9.50012472654544,-0.0009045895853652,0.0078252145523195,0.0029275037893805,9.74210739311046,0.618428861091275,-0.59253556342841,SIT
1.82,-0.0003912811245015,0.0029288653926059,0.007723173175036,3.16039542834062,2.63440595483742,8.89081599068162,-0.0049696012984154,0.0083744931318322,-0.0002408032662057,2.617218344434,-0.588617723600653,9.51765271416258,0.004900249994814,0.0090423778364402,0.0052558226616443,9.76549824731978,0.683443533491561,-0.614971805304838,SIT
1.83,0.0004033433157869,0.0133421390980161,0.0020397871065623,3.2156749458748,2.58716429867713,8.8960943220537,-0.0095181820178958,0.0054493204520634,-0.0041777583398847,2.58456249751461,-0.576622243732914,9.52060950880965,0.0075336707001153,0.0142721778330871,0.0068463497228627,9.77529577576714,0.695870563298089,-0.64433632865896,SIT
1.84,0.0157864954739302,0.0115597726279733,0.0024079223424979,3.23172500092519,2.65899065004805,8.89868023979189,-0.0139891333147564,0.0045502497609904,-0.0035879506497775,2.57080645763428,-0.575972749015696,9.573590590922,0.0022747131345747,0.017711749746605,0.0071531531810101,9.77735364871414,0.700264442295443,-0.600873929358081,SIT
1.85,0.0156013341887155,0.0218168693670557,0.0031078490734174,3.19546671564188,2.65949374872912,8.92274379977925,-0.0148655627885964,0.0053388059466571,-0.0098710230528622,2.55771381495521,-0.593596376194212,9.50338690309167,-0.0146921303388031,0.0166853232956921,0.0088608348653623,9.73887400435157,0.6763933846272,-0.523512567094129,SIT
1.86,0.0140329782068368,0.0142589775948609,0.0040236328040493,3.12140872709898,2.69338208213169,8.9678048737303,-0.0152561560952045,0.0086830184743209,-0.0069937405891583,2.58489426632025,-0.612900508122044,9.47724136750959,-0.0150520903950698,0.0182156053942695,0.0082649507671214,9.80268479395617,0.669542147576139,-0.680193813289104,SIT
1.87,0.0122802613700559,0.0126403000548358,0.0015105581839521,3.11282284679694,2.71252700334219,8.98252032368518,-0.0106385956374874,0.0119908736158317,-0.0157124547043152,2.54775443247596,-0.606684367712764,9.45682764690576,-0.0103288888947066,0.0240201881803153,0.0088103010608816,9.79894660152653,0.629493618309836,-0.715726951810111,SIT
1.88,0.0134451353800252,0.011173934316454,0.0026842252748754,3.14814654989261,2.68640675629253,9.03457688795396,-0.0155006374172705,0.0144345020108293,-0.0122461429456002,2.53933266157449,-0.633299275905314,9.48984433418292,-0.009054445629669,0.0285656305693082,0.0099663060190633,9.7625583697051,0.639702523401188,-0.641730834684402,SIT
1.89,0.0085724902770098,0.0053927885940521,0.0008952564122892,3.13389885317789,2.71717077306212,8.99087120052338,-0.0219891183908441,0.0164009399856626,-0.0101285599455652,2.53675211004614,-0.687900067457678,9.50270981933284,-0.0069718093907265,0.0261952953850349,0.011588206294596,9.77066949669748,0.646679687718415,-0.711386660992503,SIT
1.9,0.0089539839698297,0.0044675333094052,0.0066506368196643,3.10793756262162,2.74949824718463,8.97940735977951,-0.0134665764356381,0.0154394219215009,-0.0062651262430734,2.50327462373205,-0.676773048285886,9.50580013137176,0.0003677438678501,0.0203822944686719,0.012907428775834,9.74562167785236,0.645599836262768,-0.580071852977634,SIT
1.91,0.0110999478009532,0.0074733642478473,0.0055683597981915,3.11040391150971,2.71593070578466,8.98232976347978,-0.0049445226279648,0.0144781698452073,-0.0024006056867373,2.49649820980718,-0.736103040323058,9.49526655394571,0.0014563763436963,0.0187410932266039,0.0120228450011207,9.6996162506472,0.671498237020641,-0.522577296710089,SIT
1.92,0.0118699461734942,0.0003005857744294,0.0062148654576203,3.0966785525499,2.74659374232414,8.93845702382194,-0.00441617682361,0.0113110842880445,-0.003734985540668,2.4747382481002,-0.692663486006907,9.48903784770081,-0.0051009488270661,0.0088027377211041,0.0191706251587694,9.73648215891757,0.658925265447458,-0.592558487419483,SIT
1.93,0.0079785785156447,0.0033112360867056,0.006294156512719,3.08136060105735,2.72660557862306,8.91523145037511,-0.0017337092796658,0.0054536031394138,-0.0050544799458272,2.42439873554596,-0.684098417074611,9.52150573073287,-0.0021878028416911,0.0083509376758096,0.0132573352501527,9.71762132596537,0.689482508724021,-0.623182073114844,SIT
1.94,0.0052666374098315,0.0114869393231751,0.0023176477057693,3.10360119704181,2.72968170578495,8.92365340809929,-0.0096183682991167,-0.0026826682261541,-0.0065496173591422,2.45561560599107,-0.611178864716278,9.54972408647208,-0.0034721292672217,0.0008613092357959,0.0147669723142334,9.73099408495729,0.61165554993879,-0.67087631315238,SIT
1.95,0.0128561874611481,0.0124065745863235,0.0054724118385262,3.12542335921629,2.732987715516,8.93215380608057,-0.0093205436899781,0.0037753738976665,-0.0056212112934606,2.47197353087924,-0.661188320633589,9.5327637452345,-0.0050969339569679,0.0007934314918611,0.0103459239253803,9.7521796133811,0.612542766393924,-0.643522283150921,SIT
1.96,0.0111036591012745,0.015107473084681,0.0070834617396309,3.1471471012183,2.73647943456181,8.940636107021,-0.003027504140682,0.0034820368270007,-0.0062981967431051,2.5193425536651,-0.637563438423777,9.54413068850371,-0.0074499814053928,0.0008388952864363,0.0074030384954396,9.72294915104731,0.572529401184461,-0.552106926106633,SIT
1.97,0.0046784942499803,0.0127218011752589,0.0051027319326016,3.15675506818247,2.74147203170298,8.98152620662815,-0.0006026005242236,0.0011435999656622,-0.0031943183162879,2.56454138772269,-0.651794474750585,9.48847073293358,-0.0069005864846431,-0.0025151717496543,0.001216068765667,9.70580329388478,0.609351943071594,-0.541683768261235,SIT
1.98,0.0009721536776655,0.0054761427379247,0.0044843435149311,3.09800970803482,2.6813782317568,8.94499155625844,0.0058872288842979,-0.0008206689583325,-0.0053106530576955,2.50776635370296,-0.600490542778429,9.46135555779651,-0.0027320586189492,-0.0043170460601374,0.0017974956626786,9.74248456098908,0.59816177051079,-0.613314558589293,SIT
1.99,0.0054398976437715,0.0022344416239792,0.0083647751652619,3.09319650933778,2.6652598101741,8.96268489113031,0.0050262068767449,0.0038413841992236,-0.0040813834019861,2.51491784747706,-0.574094510969062,9.42868993957867,0.0087715058529784,-0.0119379914333374,0.0037012003228017,9.7329480708892,0.613940255499828,-0.629861593527787,SIT
2,0.0054498965676246,0.0012288759530811,0.0016245071151792,3.10667010996783,2.63579772394284,9.00630054849659,-0.0017958727306754,0.0073008243951109,-0.002070415324254,2.57236746487814,-0.571690084934171,9.44341688997808,0.0170432139004291,-0.0057911030002448,0.00025140590147,9.72734797305676,0.669009348513699,-0.608835941095494,SIT
2.01,0.0124589039854371,0.0066980894463841,0.0049507698499464,3.11751428671361,2.7193889591802,8.95016069190704,-0.0087179298429701,0.0026307197308916,-0.0024278079766063,2.58028361320454,-0.561229538307403,9.4903685864769,0.01508684175149,0.0013415189795729,0.0121089284610587,9.76989707240764,0.700946989225958,-0.600840761182725,SIT
2.02,0.0188734712391097,0.0057678081926253,0.0095507270072458,3.18830100778356,2.69413029253405,8.97813822544773,-0.0134209158999489,0.0113531634122302,0.0004213740424963,2.57845811941832,-0.615368887607253,9.50304456804513,0.0089717967436492,0.0052098328828477,0.0118950956234617,9.76239563421946,0.720220058343124,-0.574400163133715,SIT
2.03,0.0147946994691408,0.0070801130696259,0.0046864493071205,3.19721113182658,2.72780838900308,8.94255615873284,-0.0065985333504398,0.0078940812274592,-0.0015893235400926,2.62822787507362,-0.639902483372921,9.55054957675702,0.0017117112396049,0.0042257440687917,0.0125175779214865,9.75301436991619,0.735057177632813,-0.589724894662505,SIT
2.04,0.009921529709652,0.0056221396392647,0.0070191293194673,3.19960975598549,2.69445003974202,8.94547906795499,-0.0048382549086842,0.0085463038305984,0.0013047930882589,2.59123381539972,-0.633302342695935,9.53009000515235,-0.0027209592995647,0.0066441344932407,0.0079507607891265,9.82040321174237,0.708942377195339,-0.617522210333685,SIT
2.05,0.0060314428899425,0.0086342596786921,0.0070945231736271,3.18849310384009,2.6904341878054,8.9048224681383,-0.0012930650493898,-0.0019718138510373,-0.0012446007041791,2.52385120870896,-0.560749200994235,9.49975814398367,-0.0071428768202671,0.0120077199905145,0.0007158323250664,9.78961465821193,0.693430112489395,-0.613379682843551,SIT
2.06,0.0019605488487069,0.0175817704462208,0.003738256025839,3.17215231120828,2.66992099645419,8.88213123136478,0.0012825960752437,-0.0018974704494437,-0.0062689202685296,2.50958884956796,-0.544197096445112,9.47302719178569,-0.0138317706923108,0.0215734428494908,-0.0013644603056446,9.83561492734884,0.637227273893297,-0.621048356130195,SIT
2.07,0.007603884787716,0.0238229325168302,0.0076940058693928,3.17512583403103,2.68635507987638,8.8649909597442,-0.000046067936469,0.0040838214699095,-0.0066890121968332,2.54155158157633,-0.556558495642081,9.47026792758534,-0.0154557809008043,0.0215060427067791,-0.0057859922978549,9.81068575972287,0.596315968499048,-0.683793214544525,SIT
2.08,0.0091456726913578,0.0171139805425596,0.0105030430627711,3.15436166017219,2.76366785886763,8.96449906783099,-0.0050462390325563,0.0063476096970587,-0.0047691634947822,2.59904087263599,-0.554473106750929,9.4849864076622,-0.0127321421911048,0.0228783868918752,-0.0049174076921928,9.79516170379962,0.610107208723854,-0.582969140263986,SIT
2.09,0.0204336056695598,0.0133177200582659,0.0086532304402712,3.20814523220816,2.80227982703031,8.94603994883074,-0.0136913846609612,0.0109999643547748,-0.0026695536536744,2.61881984799295,-0.599063705050252,9.49166267940588,-0.0160024526584982,0.0168509681486861,-0.0084244617256292,9.75699755243105,0.645990318760167,-0.597751179629691,SIT
2.1,0.0116744188275841,0.0105527058236968,0.0069303411863403,3.15240789708011,2.76588512232326,8.96450249282397,-0.0133324869142528,0.0156109570027846,-0.0047244670446185,2.63816090790522,-0.644048166039025,9.49842968563595,-0.0160024526584982,0.0168509681486861,-0.0084244617256292,9.75699755243105,0.645990318760167,-0.597751179629691,SIT
2.11,0.0029058338281569,0.0044752728437798,0.0078212604346832,3.11703115448206,2.76561346765411,8.98839450936229,-0.0115363906359881,0.0083099033220032,-0.0026555089262135,2.58638508319119,-0.62152651377058,9.45133204891807,-0.0032248659768457,0.0137713336127689,-0.0053564420546918,9.79803768945318,0.704042304986369,-0.675935895937399,SIT
2.12,0.0071946128974446,0.0028457116421224,0.0041498849306937,3.10901781375349,2.72708222854455,8.9507753145217,-0.0108717665676563,0.0053192618161572,-0.0024460059506123,2.55256235097243,-0.663067989510325,9.46674136548727,0.0090975599398741,0.0131340844215794,0.0005081540534883,9.78472216850892,0.681056734183844,-0.728104476228369,SIT
2.13,0.0097310879109338,0.0039190064136359,0.0020862131791485,3.0981675422708,2.72321694225011,8.90997282273537,-0.0112672004090877,0.0086604002410812,0.0004338874150402,2.55190731210773,-0.664090234075035,9.46684631140299,0.0119978231704651,0.0177478232959503,0.0060863824157034,9.7771687059141,0.701799470151873,-0.700473914129788,SIT
2.14,0.0130460242449129,0.0011335073405401,-0.0019441662359996,3.09048355719671,2.7423288562099,8.92432835689501,-0.0053329798320958,0.0037577933238627,0.0018140786198741,2.52760524269881,-0.641474222466293,9.51660117773803,0.0045444504056548,0.0185908949942728,0.0134824029180313,9.81949500958859,0.704918093873749,-0.644199953660245,SIT
2.15,0.0070310643504879,0.0077695402625033,-0.0060244210698758,3.10060655606746,2.7478828085481,8.96486718275741,0.0007623513644098,0.0051373056358617,0.0025811034315102,2.48367913586919,-0.660397856022768,9.52874340149181,-0.0075046089961849,0.0295759691794678,0.0177492243706176,9.79064801490621,0.69335380097304,-0.596747779365212,SIT
2.16,0.0101407054488763,0.0086147999659616,-0.0041281306786456,3.11225217017714,2.8037965097715,8.98478524155993,-0.0008986969417714,0.012613572921211,0.0020573342323497,2.49923638606753,-0.709690537730775,9.51201585417803,-0.0166045220534872,0.0164434452185505,0.017238769122693,9.76809106526562,0.684585138004109,-0.663643595913796,SIT
2.17,0.0124822733396092,0.0046732556205552,-0.0085168713306847,3.10553399983759,2.81663667091534,8.92631589838949,0.002414059497242,0.0117203116256702,0.0017732997775676,2.52397002326473,-0.69491464149298,9.52974459793228,-0.014430076580195,0.0131560342291565,0.0154747210279888,9.75456207871049,0.630764867392175,-0.669408244030757,SIT
2.18,0.0010000258585579,0.0034565346247665,-0.008998322202904,3.08530883643502,2.83754565750359,8.97309286954779,-0.0043158975423407,0.0015123033314627,-0.007545458771912,2.48103460679607,-0.660456302930593,9.52942825795652,-0.0229537731472797,0.0105779613354411,0.0122608390488391,9.76417802039072,0.613456548680828,-0.652379327352911,SIT
2.19,0.0033198715572274,0.0048492645664912,-0.0025197973377596,3.09971327153144,2.80171146511926,8.94400294583003,-0.004047491619464,0.0018626799842714,-0.0044557846815773,2.47260122199304,-0.671558931407857,9.48256708091094,-0.0282214280057032,0.0163755137845998,0.0045024450461425,9.73908460776832,0.592050921789446,-0.618072938453772,SIT
2.2,-0.0025261130321762,0.0022390274731258,-0.000553196284219,3.10961675558853,2.74941853470548,8.93262816029907,-0.0057692185491984,-0.0067413104299907,-0.0081782633675357,2.45842651433799,-0.655394182922626,9.45579153722469,-0.0294981727476438,0.0171286094194635,-0.007376719266526,9.74309652061581,0.581678288986786,-0.628492997725451,SIT
2.21,-0.0071988662129196,0.0014755911941989,-0.0000263658146708,3.09729265800478,2.75092388597081,8.96508005748276,-0.0068300055014432,-0.0004101808523352,-0.0055074408125184,2.49814091687615,-0.642585798585743,9.42019284076674,-0.0218637952677573,0.0195284658224507,-0.01005955038515,9.73157053105556,0.564580952263606,-0.638125586848601,SIT
2.22,-0.0064257350298982,0.0019397567828107,0.0021332752879712,3.0846652489944,2.69528942864361,8.94542243487469,-0.0015977992087238,0.0056306413782448,-0.0035085058754749,2.52184106807741,-0.595369130940982,9.48128945029624,-0.0114419870461926,0.0164867349468982,-0.009922914311583,9.7337778583873,0.599866096133577,-0.640447379857593,SIT
2.23,-0.009141907755232,0.0067994916075092,0.0007644133281293,3.09024743125982,2.68291621494092,9.00412585517809,-0.0036185697809399,0.0084948374618009,-0.0019788336996643,2.48914873630767,-0.582980760996446,9.48422284041653,-0.004620642723662,0.0228603196805532,-0.0104026804261372,9.68534953000836,0.593788133988509,-0.57883347345053,SIT
2.24,-0.0027125038572211,0.0124946889646668,0.0001420935710952,3.11370140657847,2.67851964254826,8.94006504662131,0.0023480157905541,0.0135656967553948,0.0047599586217092,2.48809447925108,-0.583075612547844,9.48449364334152,-0.0009109087639999,0.0234969612914086,-0.0070194652025009,9.7124803078329,0.570556365127854,-0.617415766213361,SIT
2.25,-0.0050217313224425,0.0144147305017323,-0.0089511087421156,3.13325332142033,2.63047654398647,8.96978455467949,-0.0081262002111719,0.0155432736824242,-0.0005702301524347,2.48055674612398,-0.556080537276988,9.50503491886508,-0.0049007340864707,0.0285460481381293,-0.0029021988502952,9.65803474746995,0.590025303940994,-0.487079069131728,SIT
2.26,0.0010263797925603,0.0253512399218182,-0.0112018474920466,3.13868534697513,2.61251564333355,8.9558800108802,-0.009021001229735,0.0102312557079087,-0.0046973019126361,2.45145163668124,-0.538843492220308,9.53150791890369,-0.0010913676582441,0.0282724470073472,-0.0029084749528901,9.67747708962116,0.587331168905049,-0.498939152690867,SIT
2.27,0.0078236690771634,0.0224928616427115,-0.0075735090420473,3.09667477890975,2.59633131460111,8.99800640860441,-0.0118990099512003,-0.0001686999755795,-0.0081229541977464,2.52038863841654,-0.506261305175528,9.53701250020571,0.0139336215316294,0.018029962667823,-0.0023006746434727,9.71718461904325,0.639985997595132,-0.618207919336348,SIT
2.28,0.0103589292752213,0.0235656489320239,-0.0096322062357861,3.0638444242428,2.55597423577677,8.95245484648808,-0.0131905041163212,-0.0021402689661743,-0.0093698585821775,2.52140123307996,-0.593100301007898,9.50575174042655,0.0222819087758291,0.0173677523004751,-0.0037854170040344,9.70951126100469,0.661273523953648,-0.590403524283061,SIT
2.29,0.0140668710256382,0.0264850871832283,-0.013127567635883,3.04821105080077,2.64405960411298,8.96126674833388,-0.0058043357610073,0.0012118340229165,-0.0073530594122709,2.53909631404436,-0.589866163587871,9.47624097723303,0.0194604029563378,0.0169108398784346,-0.0012734350565973,9.74825604671122,0.655407352692969,-0.618095394772065,SIT
2.3,0.0105648881609798,0.0275665117506807,-0.0140380812190132,3.07568571649039,2.6301079714945,8.95565031119364,-0.0044864446485902,0.0092905628353562,-0.0082629465979624,2.59243292871385,-0.593369130347632,9.46758389199161,0.0139360010915083,0.0180338588564316,-0.0023056338554047,9.78253047755384,0.680647298483032,-0.535612542665937,SIT
2.31,0.0152156881982228,0.0217078847772153,-0.0093293825731788,3.08301938648674,2.77783439181796,9.02499536543671,-0.0142261923147896,0.0102961529756359,-0.0088556321633637,2.5304638260353,-0.616654632243337,9.50921180683613,0.015717096889115,0.0103753766388586,0.000675206478573,9.7715501235791,0.691703862890118,-0.592046686926518,SIT
2.32,0.0305623580620957,-0.0052841621649406,-0.0040849176466114,3.14450041818856,2.79961157224687,8.99161000755219,-0.0169130012387134,0.0161491947332748,-0.0075352103927732,2.55100084610239,-0.608580996801512,9.50345948429425,0.0125574918601483,0.0143999468791053,-0.0000774607309807,9.80466335568477,0.740914950635661,-0.598140031454011,SIT
2.33,0.0239225496905024,-0.0073476804193856,0.0024566536484192,3.19972181745304,2.78272780521594,8.92007647961292,-0.0078663886061409,0.0081639131383086,-0.0125116595539442,2.5446409882664,-0.668048712198606,9.49269712103714,0.0044626866497468,0.0144438799037396,0.0053892660212606,9.802623057196,0.70639969512249,-0.592596966769967,SIT
2.34,0.0066058862678518,-0.0002342069456988,0.0028161693198254,3.20671688169208,2.85059116030258,8.88101535222278,-0.0118706421630686,0.0059374772673112,-0.0102827528678838,2.53374070831438,-0.646800876920791,9.48958044629998,0.0019323977452141,0.0192676226848785,0.0065494988295793,9.85916906458556,0.691742648706869,-0.676698949493933,SIT
2.35,0.0139758070274927,-0.0109479680637431,0.0088971058611801,3.20291241406342,2.89213626637598,8.95033060445739,-0.0156753230846705,0.0020412470311398,-0.0094950893383653,2.55516842324576,-0.638501520850178,9.48361004158132,0.0019323977452141,0.0192676226848785,0.0065494988295793,9.85916906458556,0.691742648706869,-0.676698949493933,SIT
2.36,0.0143325869437894,-0.0075383080806115,0.01878168570556,3.20389775777403,2.83597665613808,8.89753536346011,-0.012761308075181,0.0044888917809532,-0.0068952856468308,2.56934881813447,-0.656136794137173,9.5102769321166,-0.0005771092224157,0.0270425577962324,0.0050394846851185,9.82174442628993,0.673056128528138,-0.557143854803059,SIT
2.37,-0.0053172874906332,-0.0008033193498534,0.0193998363921165,3.17380868419153,2.77312367376613,9.00028868035475,-0.0066676137954115,0.0058716751775771,-0.006122350199289,2.64031001764946,-0.656100851830795,9.47218429121316,-0.0113522859245189,0.031618893509944,0.0042868033539517,9.83077727178395,0.627381133126497,-0.492297363636119,SIT
2.38,-0.0210659344506455,-0.0014040135690272,0.0158280789912097,3.15722827043052,2.7002084999307,8.9984564817524,-0.003421075641514,0.0068244033391277,-0.0034178382735088,2.60038082230851,-0.669781871026225,9.5077224430879,-0.0164982607481895,0.0341622818483555,0.0011770628094477,9.83876191830385,0.606060479725486,-0.515150741044062,SIT
2.39,-0.0195028565057863,-0.0014883867974563,0.0134095481526575,3.13308132841009,2.64487022789994,9.01133338127874,-0.0021308041062264,0.0087957437413595,-0.0021695868779928,2.58522213940673,-0.653474257199846,9.48123268002791,-0.0125459790778045,0.0232105967539346,0.0024044448270022,9.82329358731264,0.648192341917509,-0.459890364818555,SIT
2.4,-0.0113000317712935,0.0004877963437515,0.0044481431272624,3.15775848569785,2.63929383789632,8.94724290607181,0.0002920950306767,0.002595685387023,-0.0065821890841575,2.57439661033867,-0.631555934283619,9.4781506258767,-0.0055562964739637,0.0218623058005674,0.0004898622861526,9.80970451569368,0.595772958075225,-0.465050198675466,SIT
2.41,-0.0011732897688098,0.0057884798410477,0.0029498609429607,3.13952857018524,2.65215884868319,8.92137076198707,0.0064514689657961,0.0059964592550616,-0.0012763894122241,2.54084631332825,-0.671755502448495,9.49345195577844,0.001788158561493,0.0189808431343535,-0.0008262964444442,9.77012450930042,0.625960420359573,-0.521999202005323,SIT
2.42,0.0140277216925659,0.0055983199999998,-0.0041800449527649,3.17395906747787,2.653417095262,8.89759117070309,-0.0038211367062302,0.0101623167091686,-0.0005361827578185,2.57945213812258,-0.65827410790039,9.45827243343146,0.0057575543279743,0.0086278836210346,0.005786750333298,9.72745048419731,0.668631651126644,-0.545178666827016,SIT
2.43,0.0192801576640453,0.009445484391023,-0.0033556453790848,3.13823329266235,2.65435556004635,8.92117319454176,-0.0073260316294899,0.0056920626975543,0.0018474934278693,2.54522347368855,-0.664435241617138,9.52905681254469,0.0047134445807853,0.0138296307057111,0.0093757469095398,9.73291746478698,0.688699271770186,-0.581962586547672,SIT
2.44,0.0173345358872378,0.0071342204734239,-0.0040765608010364,3.12711365823585,2.70849332193282,8.93235017094322,-0.0017576655753406,0.0032096959286143,0.0046204412343236,2.53624399240061,-0.64073459398602,9.53769110621713,0.0042301314066984,0.0133244877424608,0.0148359345899596,9.72154091032712,0.66938261849649,-0.5922841413909,SIT
2.45,0.0184959516303273,0.005669471780902,-0.0028973803251295,3.11145260200155,2.74644267119062,8.96115101570089,-0.0048706699620127,0.0024310684730296,0.0034602010178134,2.53183669778008,-0.646543046136256,9.51428752886209,0.0048583156841842,0.0141248606757221,0.0167489893357004,9.74327723171895,0.699011239049822,-0.609712365472287,SIT
2.46,0.0083696913713939,0.0080040386515757,0.0001089317207046,3.12605421786882,2.76844041770473,8.9839917150372,-0.001424748256763,0.0017146212970644,0.0047244712976667,2.50276678171014,-0.613936237016679,9.4609659873979,0.0018890738494588,0.013374527102212,0.0118830883499444,9.75281798272324,0.681502808484272,-0.592600449446147,SIT
2.47,-0.0040931768734744,0.0175924902267261,0.0048841831043673,3.12968796972131,2.78470122146641,8.96663780079036,-0.0081163795162576,0.0014787036558032,0.0007544662830365,2.51910765016079,-0.663632627597198,9.44396587279741,0.0018890738494588,0.013374527102212,0.0118830883499444,9.75281798272324,0.681502808484272,-0.592600449446147,SIT
2.48,-0.0019825517886222,0.010664138312862,0.0116561764713757,3.1344634283567,2.77262508595532,9.02555293727135,-0.0052034437868495,0.0039259379394885,0.003356125976014,2.4764740703953,-0.629886157697621,9.44351004390236,-0.0008619245898541,0.021773390069844,0.006381666683239,9.71727170314501,0.696709720945615,-0.477883324417725,SIT
2.49,-0.0064634303947364,-0.0003522795129381,0.0114813146549103,3.07912725302451,2.67734897581806,8.99220798432486,-0.0039133709208712,0.0058969643255584,0.0046050008473932,2.46978685539347,-0.6031349776422,9.46383813480441,-0.0038560656838991,0.0180713502088096,0.0041854530087188,9.72373127342269,0.670049655883294,-0.544049562532746,SIT
2.5,-0.0027635645309882,-0.0083804934071761,0.0090896820901631,3.07481382115803,2.60348069326276,8.95780633262618,-0.0026885437316782,0.0058515044984903,0.0013218915611117,2.45568506859005,-0.602113953677085,9.51683338336984,-0.0057373080078533,0.0156735857833927,-0.0015570194048653,9.70226007266315,0.638762991656778,-0.523660390543965,SIT
2.51,0.0007335362687777,-0.0018298603171685,0.0115198555639523,3.03948399241218,2.63013092202678,8.90536666272414,-0.0023557752364121,0.0043565106047214,0.0014258035929883,2.49755283614811,-0.636818494271991,9.51742635533091,-0.0077508121481169,0.0112373147276791,-0.0012413231151146,9.71016773584355,0.617810761173519,-0.548471672660863,SIT
2.52,0.0073619050606788,0.0045515616343215,0.0091082910541237,3.05016755294991,2.63477295659749,8.94599641483437,0.0006583317033849,0.0040396199544318,-0.0004521755112675,2.52591358274922,-0.635769700778578,9.52496100070187,-0.0052226036061556,0.0064098126690397,-0.0023959048452596,9.71021499571914,0.618153519900313,-0.547247465481475,SIT
2.53,0.0131949295392187,0.0114822179496951,0.011279543197337,3.06221322532388,2.6903941120716,8.96581422630952,0.0006583317033849,0.0040396199544318,-0.0004521755112675,2.52591358274922,-0.635769700778578,9.52496100070187,-0.0001871307440925,0.0047792782665787,0.0041063595076967,9.73968996664284,0.628286566833255,-0.591223811248906,SIT
2.54,0.0180545626655886,0.0096226982009708,0.0115792620347179,3.07959282401551,2.67791809446462,8.99187908100205,-0.0030861689030538,0.005330084727957,-0.0033144077649522,2.53572464678107,-0.623565711108095,9.48237483383196,0.0042213327499512,0.0023493036027248,0.0086946113071899,9.75347850233704,0.679959650449957,-0.583431028488448,SIT
2.55,0.0132057019184601,0.0071564570797704,0.0071550944396181,3.09434766579653,2.69978088801008,9.01471633551396,-0.0041110776975064,0.003706645421943,-0.0014729282595398,2.49294796423485,-0.589417253121572,9.48197845066514,0.0065891448665631,0.0052533157923737,0.0089765937909737,9.77734040753333,0.74445470767578,-0.60597286836029,SIT
2.56,0.0165121898027792,0.0010565699623728,0.0057486159599989,3.11111417638597,2.71505312715378,8.96451439305948,0.0036079227657701,0.0017067215058521,-0.0068619016180969,2.51036023557659,-0.585356325244555,9.45263487992137,0.0019676059855832,0.0095112537826525,0.0111636506924072,9.80914933652242,0.734375393495007,-0.520087863487227,SIT
2.57,0.0104905966362885,0.0043806769007779,0.0042709381444839,3.13270850015708,2.74636390467361,8.89660065268384,-0.0030183178178608,0.0034874176536033,-0.0063013492715059,2.54830792756771,-0.554267369301056,9.54057930372252,-0.0072828213574424,0.0070484486222529,0.0093981484135068,9.84804260781166,0.727336560353686,-0.548310767477102,SIT
2.58,0.0182654795685534,-0.0016493149419632,0.0041477923666196,3.12995187120908,2.78178061183308,8.89306535994261,-0.0055333577270913,0.0015615457528239,-0.00426780114708,2.55132958550036,-0.534044287416578,9.4845331728464,-0.0062750353972912,0.0092673825189027,0.0092398509279937,9.81943762696221,0.745581131804553,-0.548735053731302,SIT
2.59,0.0174684411214957,-0.0010977508579549,0.0087315422909044,3.14181927429202,2.76017941364657,9.00932791372273,-0.0038845287519538,0.0081459336769453,-0.0050678704492686,2.5777303205058,-0.605434495296114,9.47083394541343,-0.0048071760548831,0.0090389487504045,0.0062920436760593,9.83303816479162,0.66840120180557,-0.595944184599105,SIT
2.6,0.0112310625324236,-0.0017707054386686,0.0116703075330817,3.11948064451895,2.75854014395783,9.00041981097314,-0.0094218760859332,0.0135655837270367,-0.001816977294242,2.61909437952168,-0.640394742581623,9.47156654069952,-0.0091538798467995,0.0156313814258699,0.0097937537058628,9.86409387694991,0.682724891600413,-0.597569585913849,SIT
2.61,0.0102743895214367,0.008017567998065,0.0101991943665258,3.17996848248222,2.72808880736055,8.9881276873618,-0.0130678169966058,0.0159502792909612,-0.0016414181275135,2.67448517709912,-0.692349532024567,9.49905530516529,-0.0176604385744704,0.0240372288721292,0.0126905192151789,9.79235203910565,0.638471614819243,-0.559446771231497,SIT
2.62,0.0058059136725999,0.0079477966123187,0.0089164246030806,3.14927912285281,2.74404991990822,8.99420494661105,-0.0150492861746138,0.0108604581335995,-0.0009466882029207,2.66587500841792,-0.719541517305604,9.53193270419611,-0.0176604385744704,0.0240372288721292,0.0126905192151789,9.79235203910565,0.638471614819243,-0.559446771231497,SIT
2.63,-0.0008075061579438,0.0125149727489566,0.0102176226576427,3.10009189358294,2.71596718754813,8.92231157544554,-0.0054424520627944,0.0096856574193854,-0.0018890211154536,2.5926093624718,-0.706177897467521,9.49064545897669,-0.0151828082746608,0.0260291956823391,0.0095842365351493,9.8063231862117,0.689767365922537,-0.549397406978437,SIT
2.64,0.0003670812960381,0.014358230695156,0.0087804405759046,3.09166743449732,2.7338056948739,8.93724356706194,0.0028484158305625,0.000431691550134,-0.0019285661537383,2.54864546896626,-0.72499584368405,9.50263432976295,-0.0151032683281311,0.0221643744433845,0.0088643281261745,9.78711885628456,0.691969543633329,-0.532419873557974,SIT
2.65,0.0033095724165793,0.0091683541999275,0.0016134394390755,3.11350486059973,2.73641264090582,8.94603380775087,0.0028484214699625,0.0004316849705943,-0.0019285790797985,2.45243472387459,-0.687111373212703,9.51081638189408,-0.0136335824278249,0.0219372541327047,0.0059165031921719,9.78872070626228,0.696312673334584,-0.488195890619642,SIT
2.66,0.008762421209362,0.0060649158418213,-0.0008662231645325,3.09687451116405,2.80083647778334,8.89899753899257,0.0032504499151062,-0.00290489668423,-0.0048118938286782,2.4360347479336,-0.637578781095395,9.52783460559116,-0.0146107035487027,0.0226742236643992,0.0034025632580693,9.76803125909804,0.693963188813995,-0.513379233870741,SIT
2.67,0.0047168073122478,0.010681004687644,-0.008369880237128,3.15401905485137,2.86181888136615,8.9358053014429,0.0027856032243382,-0.0015835295518814,-0.006461309723406,2.44577228435209,-0.643901341053856,9.45147801471184,-0.009441697909935,0.0230804272362439,0.0038510137029178,9.72794001444959,0.694733350214249,-0.524032927055774,SIT
2.68,0.0047163213289933,0.0106808121223513,-0.0083690720916094,3.15856132054568,2.85103955309216,8.99441888499037,0.0027856032243382,-0.0015835295518814,-0.006461309723406,2.44577228435209,-0.643901341053856,9.45147801471184,-0.0121931776819174,0.0187584788849671,0.0056353818767876,9.76607444881446,0.659056656446958,-0.504813372306746,SIT
2.69,0.0037283018002825,-0.0014164686424161,-0.0076219717104218,3.13041497586474,2.83294876637091,9.00367489616067,-0.0028419577653546,-0.0042889055464504,-0.0055910937805341,2.51838830156254,-0.658042284604827,9.49289371308921,-0.0111060889723555,0.0171107504077638,0.0047598130200812,9.74314398066907,0.622451829772088,-0.526338866118593,SIT
2.7,0.0031177713464643,-0.0111169653605662,-0.0037299706071035,3.12579645713884,2.76024555400998,8.96910859413326,-0.0066006002094119,0.0078874838759918,-0.0015938010247162,2.52855811948919,-0.680291991902229,9.49612458499944,-0.0094708688418656,0.0201293506217065,0.0065174332320827,9.7137250634561,0.611864639722878,-0.479682588380597,SIT
2.71,0.0015359768724337,-0.0143373980003858,0.0013087931081454,3.0556607297763,2.72984677089135,8.88801049290002,-0.0012251943464177,0.012056171015636,0.0053074499063859,2.57974421154693,-0.667658861806973,9.50970838394115,-0.0069788050207034,0.0123421623328593,0.008034881116613,9.69304279492483,0.609255148746801,-0.505541429525969,SIT
2.72,-0.0083837246048781,-0.0036689416985976,0.0040107932580832,3.04227577754491,2.68112208818078,8.94097452455598,0.002307177265873,0.0074514668045221,0.0069292906206453,2.54096561172683,-0.644425375944882,9.51121394515184,-0.0019533470009695,0.0107034918233065,0.0145429301261874,9.73201089928309,0.602141538901227,-0.533363546204379,SIT
2.73,-0.005656184196869,0.0024144857069127,0.0042795659935609,3.09268796669606,2.70170128579543,8.94038355880814,0.0066616754792865,-0.0058729217235997,0.0061276883112219,2.51614556624632,-0.605748883487126,9.48135934622146,-0.0036312411050492,0.0145104950444788,0.0108329800319024,9.70709391979347,0.659244651274745,-0.495584718506142,SIT
2.74,0.0011463908010235,0.0028628005498019,0.0053071981800606,3.11532737542862,2.70395961188448,8.94900377248843,0.0040835722444354,-0.00981456886879,0.003627232025946,2.46713027892005,-0.596835942943662,9.51329689219481,-0.0046739273944484,0.0093368092124519,0.0136567138915265,9.7390742034181,0.70237056877789,-0.543273586639157,SIT
2.75,0.0038602381530554,0.0132731899392267,0.0097034498949682,3.14504142027188,2.68840137667217,8.943162704203,0.0036189914126886,-0.0084932353239297,0.0019776841113446,2.47748198532639,-0.603291174025997,9.43677450504088,-0.0056833422196909,0.0071185429124245,0.0138117848246793,9.72342620873371,0.743247734811035,-0.490097007640416,SIT
2.76,0.0079495289728568,0.0109453231289916,0.0078451207212171,3.16693888551668,2.69125872832639,8.9518668052495,-0.0009293874883718,0.0026427469407323,-0.0032988479962769,2.49737058524463,-0.56113463262843,9.47448139832232,-0.0129121611493864,0.0091038772614625,0.0117181818859625,9.73934861831646,0.699868255699178,-0.541580852782734,SIT
2.77,0.0091231546366487,0.0051534237069857,0.0048992095434408,3.16435171305266,2.64144242523223,8.97282197342378,-0.0045484537013505,0.0111358861288751,-0.0052766301376315,2.53288598851125,-0.568436124534631,9.49538983892017,-0.0198654910547279,0.0134239286554988,0.0109403741318591,9.7385759217878,0.669589643083934,-0.494292913732354,SIT
2.78,0.0044366272918392,0.0010887038121509,0.008032300411025,3.11875462195832,2.63663906897654,8.95577321517121,-0.0051717221293899,0.0061752947926226,-0.0063189884493449,2.5361776449118,-0.563377710075619,9.51904467895828,-0.0225508545970253,0.0150145640055362,0.0073850412248328,9.75721334098611,0.636502044260954,-0.461168301082536,SIT
2.79,0.0034644818465946,-0.000065932698598,0.0076700319938883,3.12464208857371,2.6252959252106,9.01410022511529,-0.0043741728790004,0.003359024276163,-0.0045656766476647,2.51104846322781,-0.525279766315087,9.48923572171258,-0.0236703009115748,0.0137101011863279,0.0109248787756118,9.70466385178749,0.589503274380642,-0.438304539430503,SIT
2.8,0.0098891944113895,-0.0020160901659951,0.0055547566514455,3.09643907372357,2.63453854795025,8.94699266187101,-0.0043741728790004,0.003359024276163,-0.0045656766476647,2.51104846322781,-0.525279766315087,9.48923572171258,-0.0218483337170989,0.011947432493379,0.0085777443185617,9.7366809451053,0.632977359369888,-0.485733757395055,SIT
2.81,0.0118023276050185,0.0013131756114408,0.0130270260035552,3.09671532786025,2.63522119697295,8.94669600448152,-0.0019900363813414,0.0051122361398034,-0.0081433758809551,2.53130931911866,-0.569207519208262,9.49576406083097,-0.0124109213481677,-0.0001666916703228,0.0108721776648326,9.76544610964004,0.612928174421482,-0.483727500748236,SIT
2.82,0.0137455744478007,0.0036217506441534,0.0137535109022962,3.04387725478789,2.64892089443251,8.94396063757873,-0.0044439136961693,0.0052004322641124,-0.0015787096385411,2.56698829515194,-0.576534233063626,9.51663513565661,0.0012143582133834,-0.0013623067098876,0.0064970662298719,9.77434041300685,0.620343298689611,-0.556006032668921,SIT
2.83,0.0240736338649341,0.0095941148162804,0.010471764016066,3.12886818541584,2.67205659635924,8.91917822385888,-0.0134466018161032,0.0013692570259077,-0.0049642247106659,2.54494569081183,-0.586679657980694,9.52259105490115,0.0012143582133834,-0.0013623067098876,0.0064970662298719,9.77434041300685,0.620343298689611,-0.556006032668921,SIT
2.84,0.0209690916020675,0.0087492752632554,0.0085673294264778,3.11064457046556,2.74438545143555,8.94458644029509,-0.0115967656286778,0.0062857020535452,-0.0072039741507261,2.57381259773171,-0.629953335346472,9.51439620942123,0.0085158693479351,-0.0072206941508618,0.0078724383854329,9.7359789661389,0.639910178944395,-0.550922948374403,SIT
2.85,0.0176957740962357,0.0138296941004797,0.0032221044293402,3.16006306926864,2.76721383351093,8.9436534723065,-0.0079238538587139,0.0100106403954929,-0.0095304404437545,2.59415356235442,-0.683620674092981,9.45938559551095,0.0037731034586057,-0.0130228424107977,0.0072935915361484,9.75858716245289,0.660172756153795,-0.505869099994895,SIT
2.86,0.0151877735218725,0.0117413197053428,-0.0014665645391323,3.16942213822312,2.77334978661492,8.98430023599477,-0.0073887271864666,0.0068479579501478,-0.0108690057154567,2.56761104286824,-0.698828579712811,9.44199699364778,0.0025789164173786,-0.0104596317199897,0.0115535455830319,9.77801564163444,0.656203837263558,-0.521509439264238,SIT
2.87,0.0145888581946774,0.0053496198909579,-0.0001889145962677,3.13750041465583,2.81776403757701,8.91397166858603,-0.0102824054598468,0.0143643738874708,-0.0081053225084406,2.57480481674991,-0.688701207078597,9.48914608286538,-0.0047218884478353,-0.0046002189583384,0.0101789400676492,9.76786458082862,0.642017302441109,-0.491973005625903,SIT
2.88,0.0140229948291978,-0.0020659816498082,-0.0056584026060752,3.12022072275649,2.80515422598128,8.96356142932348,-0.0036810915555103,0.0064784760590469,-0.0065103079181529,2.55947931614671,-0.672644249085834,9.46268623825371,-0.0087106055187821,0.0004663876965513,0.0142723607685267,9.80027187217172,0.660769836733388,-0.452916201927533,SIT
2.89,0.0046866157523792,0.0040601097324237,-0.0031316197589417,3.11431790588536,2.81749945508123,8.90489520389885,0.0012536777171661,0.0060663122757994,-0.0054330469781641,2.54529865003016,-0.671284416207908,9.51568537271454,-0.0125538162402497,0.0075773780852506,0.0123129065174218,9.81424410560417,0.711760273238209,-0.444808765362316,SIT
2.9,0.0038996612798475,-0.0073482760370115,-0.0041789777734161,3.09731182460815,2.80402428833896,8.95466650354602,-0.0015357620691816,0.0076462840122146,0.0010274853263588,2.48272386494675,-0.678856811720036,9.47751547293585,-0.019393631898895,0.001209872847756,0.0127614062722915,9.78337533614059,0.695604346422312,-0.441508008326628,SIT
2.91,0.0026910553695508,-0.0081647802343504,0.0040062623482912,3.13030747083097,2.83908309209679,8.92734521831146,-0.0010000251101423,0.0044839886980028,-0.0003109906495599,2.47883887503651,-0.699553337826028,9.53371379912909,-0.0180681949614028,-0.0010630984373947,0.0158695268948961,9.77055514446606,0.671365758166433,-0.495073465435274,SIT
2.92,0.0040536551716665,-0.0089419341051112,0.0033885394986631,3.09887353391509,2.80450944668861,8.95397423240737,-0.001333351373682,0.0059786336533677,-0.0004146897333897,2.53216460031919,-0.702755739308412,9.52524337001934,-0.0126834401470646,-0.0122722309211998,0.0141624816214897,9.74846531386843,0.663245889088408,-0.565106956473618,SIT
2.93,-0.000595260204585,0.0012445794315919,0.0027818875223858,3.1217468151164,2.75000494650089,8.91040635148342,-0.0052808665544231,-0.001147841726953,-0.0001062021962668,2.58008974229718,-0.652583835738177,9.53075730202658,-0.0115628397945399,-0.020746653165966,0.0152307221948097,9.71748585477763,0.646897662084358,-0.563879862340163,SIT
2.94,-0.0058568746315008,0.0093703469625717,0.0075788878764881,3.1621198863949,2.73868284400802,8.94537721508325,-0.0052808665544231,-0.001147841726953,-0.0001062021962668,2.58008974229718,-0.652583835738177,9.53075730202658,-0.0114897642902853,-0.0246129213685437,0.0145074732008537,9.74237844682729,0.587206767535655,-0.602656194052666,SIT
2.95,-0.0078007666962163,0.0070615484504591,0.0068540645294007,3.17205995803174,2.74255298739711,8.98652025009333,0.0060655216345866,-0.0047231705982201,0.0029344661138194,2.54814309647678,-0.598535468283845,9.44765746403594,-0.0172819138689531,-0.0258009074921334,0.0121352067675015,9.77234647248032,0.571629986562344,-0.561768723239916,SIT
2.96,-0.0115138152320662,0.0117913395778363,0.0118548901429225,3.15620790498457,2.72060472918165,8.96412275094359,0.0080458194610119,0.0003672666759034,0.0022424780282007,2.55238991244614,-0.592578115791705,9.47111535880477,-0.0213282159312169,-0.0248858314918755,0.0081389081465878,9.80231329624034,0.556370808641868,-0.52088665237722,SIT
2.97,-0.0083460140674783,0.0105869892519416,0.0002693183480715,3.15806000633669,2.68525669465561,8.96801070240953,0.0033731016558035,0.0011252386300091,0.0042561246774001,2.51617026756312,-0.584981651207646,9.4503878903936,-0.0144145491354764,-0.0223889915640566,0.0069674576864577,9.80599512815857,0.594785119405599,-0.48515330734174,SIT
2.98,0.0000182463800194,0.0033057163003622,-0.0026207303714443,3.15261408741197,2.66883873740806,8.98607513315407,-0.0002475999748406,0.0096171144463867,0.0022786228202519,2.54440253011698,-0.617978200224323,9.50390065574582,-0.0093182485191837,-0.018127939873055,0.0081437987151154,9.85163693774655,0.537611513422856,-0.496298952909091,SIT
2.99,0.0052837131684294,0.0028157865576787,-0.0059134984782512,3.17496487200898,2.6718073569638,8.9945987034124,-0.0119521305718708,0.0154871466508802,0.0077301950200686,2.61137667471664,-0.638326923934264,9.52228333944511,-0.0033830203508605,-0.014893586983002,0.004462594702315,9.8049844003036,0.564147649900753,-0.442640105010608,SIT
3,0.0064418621674927,0.0013514800978645,-0.0047304498553573,3.10641705031998,2.66471087652636,8.96901371728301,-0.0095930611929771,0.0111331894906197,0.0063048549751654,2.58426281937147,-0.654279548561993,9.50498364942987,0.0075259803795853,-0.0128579864488493,0.0089767515713228,9.69975259956629,0.574222441382175,-0.484931608798835,SIT
3.01,0.0118779051931429,0.0025728353831051,-0.0030759756338642,3.13636147078379,2.65006637007642,8.96286287675124,-0.0060770820354214,0.0085771144211254,0.0045858038167575,2.529466094519,-0.65205153446389,9.51375904362453,0.0119445920885934,-0.0187169996682268,0.0145315516078803,9.68895391811191,0.633520202935534,-0.493832245530358,SIT
3.02,0.0128151789450444,0.0047515936909455,0.0040352066880196,3.08308255074398,2.66414589937018,8.96011622397153,-0.0056721828360657,0.0052422635900558,0.0017015100458644,2.53283475946289,-0.647339793988658,9.53736987812187,0.0105163064556468,-0.0253064973123342,0.0194118696405462,9.66899869189098,0.659369796094843,-0.569516520080887,SIT
3.03,0.0067845909486784,0.012409857045612,0.0066688878237682,3.10250214838557,2.70172394385236,8.96534252830175,-0.0054971535822271,-0.0025342346483811,0.0024096869843936,2.46854977106507,-0.622916553963719,9.54272615078029,0.011566546628767,-0.0299092485953363,0.0211951276164187,9.71010729839477,0.68543495698232,-0.605353486222669,SIT
3.04,0.0003604042021749,0.0143643932653918,0.008777998987797,3.11379435024988,2.69968731961488,8.93346314653756,0.0068018003936177,-0.0095537439373848,0.0001547595673389,2.51191759509611,-0.588874561151046,9.45127739900757,0.0103099815344213,-0.0314982074232534,0.0173638954042869,9.73092069928628,0.68529743376161,-0.580961839522822,SIT
3.05,0.0055900914108158,0.0148983303655529,0.0122361507751285,3.09271980159534,2.66276435664136,8.92861223746367,0.0080453965427863,0.0003658037338327,0.0022441918353419,2.54441539586485,-0.600708056253003,9.44852420403201,0.0000794332124735,-0.0331877557367141,0.0130765348070505,9.76009212723499,0.64004225247188,-0.494929113243512,SIT
3.06,0.0036463028812928,0.0125898623178551,0.0115104273322563,3.10225185524101,2.66752599927355,8.96961852533191,0.0055561622773857,0.0045468614072247,0.0021233431142428,2.54417019656443,-0.60012104360809,9.44862753253887,-0.0061353807451796,-0.0289704709533416,0.0108408951501774,9.74064650111348,0.641959042067476,-0.483399480528366,SIT
3.07,0.0087255696747822,0.0147160613548814,0.0074013749088131,3.10876628015771,2.6495918933098,8.95542321718426,-0.005802626174482,0.005069839650468,0.0001556520816345,2.5042485690012,-0.613582851729964,9.48400498019985,-0.0104684933799367,-0.0303856642561138,0.0055329409865451,9.7412361882777,0.616718258498506,-0.398232843633693,SIT
3.08,0.0122345575229211,0.0092977350508357,0.004204730709795,3.07762358942898,2.66595580563245,8.96145450479688,-0.0106062137235506,0.0056555247874649,0.0006222247549795,2.53580812882627,-0.626876831026027,9.48141127476652,-0.0079227850756023,-0.0322657101365496,0.0017087083788974,9.73720885486515,0.57733892350007,-0.439160270752155,SIT
3.09,0.019423282939814,0.0078083359190079,0.004265469067651,3.06466704174123,2.66937935897224,8.99348520252668,-0.0071621729295127,0.0049394114422252,0.0018913789862826,2.55078193584499,-0.591122391189696,9.49586788535045,-0.003696617427066,-0.0379532159630125,0.0015801982457857,9.72623833829321,0.58855949488921,-0.50025288030491,SIT
3.1,0.023698957131551,0.0104918580578874,0.0047422808684143,3.0556841551499,2.71676970918332,8.93143617159117,-0.0051805640663766,0.0100294343909798,0.0012004966897579,2.5706925110538,-0.635535607609085,9.50244124054241,0.0043663029786111,-0.0409773192029364,-0.0012065303721512,9.71757126484522,0.634100868633667,-0.565841949865198,SIT
3.11,0.0221483065545702,0.0138869055970179,0.0045415983456418,3.09269522707296,2.74207051471503,8.96266416668768,-0.0077560327727541,0.0060889089691743,-0.0013041517607995,2.56365350619378,-0.608909969851364,9.52287484089929,0.023366826967745,-0.045378938260199,0.0014668093804278,9.69717465494143,0.661564001648235,-0.643550098940824,SIT
3.12,0.013802462286476,0.0244753017727784,0.0048023589694978,3.09326183747933,2.79385355239809,8.94169684127345,-0.0132837637537579,0.0076516715309394,-0.0055792636132064,2.52690918856407,-0.602661049977291,9.50218226148738,0.0286774849762734,-0.0527105252645982,0.0004520518894094,9.69847841175701,0.666174491072684,-0.606504280779932,SIT
3.13,0.0107017693487461,0.0236306945150997,0.0028918751306776,3.11877590039385,2.81347548091213,8.93287669620207,-0.0087106715009164,0.0026238184313012,-0.0024533945775978,2.51096739036259,-0.640229218117997,9.48785094272776,0.0281364412153108,-0.0493443494398869,0.0066237560214496,9.72479895567757,0.711433180338493,-0.504395815803294,SIT
3.14,0.0111129067488902,0.0250013317693972,-0.0007079512312272,3.19230975165906,2.80398766969367,8.94450677158992,-0.0103311605232886,0.0021483174962975,-0.0038096248187342,2.52219988227843,-0.60976816171363,9.47876979213645,0.0216369298417437,-0.0474563825828846,0.0030773334675342,9.77252805335498,0.688472027019945,-0.52276574639231,SIT
3.15,0.0140447582622427,0.0164950307977174,-0.005244978194974,3.18553337550781,2.78916114796211,8.96256872936789,-0.0030828201802041,0.0053309856006586,-0.0033155072581544,2.59633066300357,-0.657209657417331,9.47668063759499,0.0216369298417437,-0.0474563825828846,0.0030773334675342,9.77252805335498,0.688472027019945,-0.52276574639231,SIT
3.16,0.0212330310168364,-0.0002657316033345,-0.0081876453870096,3.13433479763093,2.7697119728019,8.96300914844196,-0.0021861300982308,0.0067843171118094,-0.0067002322860348,2.59578951174406,-0.657329313014556,9.47682058210347,0.0164718246793374,-0.0478402126982135,0.0026335568965485,9.76061681662994,0.670084788442858,-0.539185792458114,SIT
3.17,0.0216244983449643,-0.0021982742196513,-0.0091660195835758,3.12094423153194,2.74411752931001,8.86653926741123,-0.0035909756734749,0.0146018975568111,-0.0041255589492855,2.65267397084158,-0.655228718707272,9.49202060401484,0.0196041138628981,-0.0421090000173258,-0.0012210510042118,9.74564563854919,0.588415931880099,-0.505160762541437,SIT
3.18,0.0154267779701682,0.0037472092319535,-0.0114902239578678,3.18896312295728,2.81117942080921,8.94344307423994,-0.0074682429443675,0.0125417444944128,-0.0003623585455025,2.63705247310358,-0.639135712626647,9.46566002986852,0.0137340449491415,-0.0394291921235827,-0.0028476378877567,9.75646116004359,0.57725830527121,-0.451547703886572,SIT
3.19,0.0122868168559308,0.0039336453940067,-0.0066561714927299,3.17602212376823,2.81489561404307,8.97534686473569,-0.0057017696589067,0.0093392531992357,-0.004982772194532,2.53868839989616,-0.655385028323498,9.48616106949137,0.015615288698071,-0.0450525888739736,-0.0059319271862411,9.74281978275861,0.554682844478489,-0.509325515887479,SIT
3.2,0.0173042539760048,0.0037851117296423,-0.0013881517545163,3.15551736373161,2.77947976615759,8.96987371372901,-0.0067009361132121,0.0138229495793233,-0.0052931105038281,2.50956943249563,-0.638017392175747,9.51255555531804,0.0256987274238837,-0.0563505910463987,-0.0017950285523678,9.77063391482774,0.589280288358771,-0.647428229865102,SIT
3.21,0.0005747999547736,0.0107221015363153,0.0028471718861762,3.12733087851589,2.76161320437052,8.97907909134762,-0.0139485354253769,0.0106392322481187,-0.0057903910209062,2.60239375923064,-0.643783943102253,9.54859435708228,0.0301240080698055,-0.0587802981712682,0.0027632164102405,9.82288463032126,0.635070597175494,-0.675070261983644,SIT
3.22,-0.0040922747502737,0.0099703858519993,0.0033480103096343,3.12165013301936,2.74532668130051,8.99721716808239,-0.0169567577951562,0.0039224056954596,-0.0032645512942429,2.61204956717064,-0.667033929971111,9.5518833345052,0.0254829194499563,-0.0603967827715014,0.0102835968632776,9.80505337970551,0.64230082451628,-0.624476892256642,SIT
3.23,-0.0037194600572987,0.0047365433865215,0.0049908299476108,3.07064109841712,2.66629933810496,8.94647511848157,-0.0129947966514985,0.003893911951065,0.0041904305055022,2.54349862065422,-0.648820077321488,9.53371193389934,0.0242280078161068,-0.0569088671607758,0.0179294791492305,9.83446997036515,0.679940166628882,-0.721558208742547,SIT
3.24,-0.000232224351814,0.0112847338271041,0.0074310350007967,3.1078340812248,2.63208928052257,8.92651798462376,-0.0108382917842378,0.0012081592096086,0.0042076347035709,2.5569527419393,-0.651299232772394,9.48087576143743,0.0192503045296996,-0.0555149155390786,0.0235259868742515,9.82118278138647,0.738394991678162,-0.658652995647324,SIT
3.25,0.0108344960234419,0.0144103205161055,0.0089637844237299,3.13731449341623,2.67398061215966,8.97267850531037,-0.0097093507118818,-0.0031040249284088,0.006062616378622,2.50088788391713,-0.61678663728961,9.5330753215013,0.0080793963873506,-0.0440328597533551,0.0216059222377716,9.77889968750107,0.745762851048778,-0.743983190206644,SIT
3.26,0.0234938796696405,0.0131071510280718,0.0039566018463551,3.11087048620793,2.70696762926676,8.96072685238623,-0.0092465757557928,-0.0044271445320812,0.0077114091994819,2.45707270531168,-0.621312163101014,9.46512138726616,0.0005720088081644,-0.0414222926599896,0.0155821653172166,9.80779383862644,0.753809082635422,-0.793326381805585,SIT
3.27,0.0289213286549911,0.0143266634981686,0.005627979882718,3.12497294197681,2.73001159499525,8.9833893346962,-0.0031836570262501,0.00105927882097,0.0018206951451933,2.51393180920421,-0.672992234219287,9.49224196256854,-0.0083527766996573,-0.0326916385595506,0.0071933349732576,9.72206517526602,0.686922103700887,-0.813590463801184,SIT
3.28,0.022934751127386,0.0133197407371645,-0.0000051342683811,3.10125965744131,2.78696918931546,9.02626542053687,-0.0040702183262076,0.0095610740536354,0.0105821570341455,2.58155493088597,-0.693174887676147,9.51051733874541,-0.0222671967479223,-0.0240496920784352,0.0057518451304005,9.7351542461107,0.680202555624899,-0.716654809398011,SIT
3.29,0.0166543910301264,0.0060635327226357,0.0081554810873693,3.04755258610539,2.80164703491295,9.02327420668152,-0.0043294279466469,0.0092181563132971,0.0074899988004334,2.57658294600525,-0.699117987546821,9.48724195285738,-0.0336022283923513,-0.024091667772366,0.0024083105272285,9.74988206674963,0.637712560352176,-0.771329053835383,SIT
3.3,0.006956145129161,-0.0054751671830074,0.0045016924354395,2.97673404899287,2.77159596341258,8.94218063944129,-0.0083082270312571,0.0130954016315087,0.0075583962022099,2.51762124847164,-0.702114589089786,9.4724940282022,-0.0292866133779249,-0.0306811377128186,-0.0011337047696181,9.7763131241341,0.613625742043442,-0.814807229333982,SIT
3.31,0.0005304965119355,0.0041224577934271,0.0080936458246301,2.95911332651921,2.78514340785381,8.91571857589746,-0.0013309451310708,0.0059785864653528,-0.0004114131337198,2.43078182007249,-0.68705100496604,9.48384662878126,-0.0269098621939131,-0.027789511013068,-0.0008587148246307,9.7996355212444,0.649964872869955,-0.794430276106551,SIT
3.32,0.0024944037685782,0.002094202383881,0.0046993295516346,3.00223618174062,2.7400413104487,8.95406984259406,-0.0007949201240695,0.0028180085862396,-0.0017517025433084,2.43151502390061,-0.633930100082881,9.47173259902163,-0.021465744201315,-0.0280150237574085,0.0035341301114012,9.76340327015927,0.690464590905708,-0.771636965069037,SIT
3.33,0.0028849559348716,0.0077970698076752,0.0052221682922727,3.01430518210329,2.73789622422359,8.92198990342915,-0.0014719064728434,-0.0041489178798895,-0.0073358079596465,2.43332807226606,-0.596106728920888,9.53899319040735,-0.0180264476067529,-0.029716006047414,0.0055813313846698,9.83059043581243,0.69389014440884,-0.849011988929829,SIT
3.34,0.0033000368516916,0.0091640393757897,0.0016195774627998,3.00877771285968,2.72206019074722,8.9399400432832,-0.0042194120889908,-0.0003109404884552,-0.0105479695679511,2.41813439457904,-0.632765265636411,9.52445705288693,-0.0128399819581306,-0.0263836523715705,0.0033404972288694,9.79162851673241,0.670539883710371,-0.776059934733549,SIT
3.35,0.0104843848313045,0.0076714985649342,0.0016980720274606,3.01353607866159,2.71146789054978,8.99850258769116,0.0056018888412633,0.0068103887922413,-0.0075376191038723,2.46884171982088,-0.587685788922615,9.48034681489449,-0.0130431661726758,-0.0148140435040428,0.0055328153397096,9.79686589698428,0.644180844501489,-0.846241818561608,SIT
3.36,0.0002047484596127,0.0083190318732161,-0.0002993249263315,3.0128355897376,2.71192774588276,8.99859856874942,-0.0050040270248484,0.0124625994125788,-0.0069216647908817,2.54014057728225,-0.601850038690054,9.52227007619204,-0.0090309747194525,-0.0118664585180474,0.0102225540570827,9.78167479871764,0.656434067764202,-0.748803032573042,SIT
3.37,0.0087523111260149,0.006047301335648,-0.0008336776430931,3.03223761448005,2.74921234411625,9.00385015040755,0.0008534171853272,0.0094031353316273,-0.00254000008343,2.49160057912043,-0.626043675341182,9.5107120124014,-0.0170521343990651,-0.0029526693755483,0.0077448024849309,9.75272143787486,0.645680001714176,-0.704250721065673,SIT
3.38,0.0116642687493302,0.0018726834119538,-0.0012378505250437,3.09453264499129,2.76913986513318,8.97089467592443,0.0061938863941562,0.0056586622770806,-0.0043421667136492,2.4972213745628,-0.652826704062777,9.49062004881294,-0.0143496505800634,-0.0074827325136514,0.0139228837750018,9.76456094960021,0.662722262283693,-0.693122294087665,SIT
3.39,0.0063968662800088,0.0023732878124756,0.0020381334365969,3.0813817815182,2.79933163334308,8.92657452608588,-0.0030057802784235,0.0034947163223609,-0.0063049829293765,2.51114142393518,-0.669128521013414,9.51742700233596,-0.0180876867467652,-0.0110444501046326,0.0132072069266781,9.77843625946463,0.684382756232511,-0.640428268135089,SIT
3.4,0.00076164568757,0.0004705849067363,0.0021673067413349,3.06124978472051,2.76272094106614,8.92136839469843,-0.007143394174252,0.0010893801374544,-0.0056374970330532,2.51328317741019,-0.701971979986125,9.47365650474154,-0.0180876867467652,-0.0110444501046326,0.0132072069266781,9.77843625946463,0.684382756232511,-0.640428268135089,SIT
3.41,0.0021025696626935,-0.0036079160574215,0.0041780554208528,3.07444739724718,2.73335906939516,8.96541799516206,-0.014956294284149,-0.0050448553300113,-0.0026538029783324,2.53293978379265,-0.660999966691714,9.51149657888039,-0.026212277512349,-0.0097972505470737,0.0097559331368446,9.78131108966355,0.663688928645449,-0.70158102880012,SIT
3.42,0.0007169218834928,-0.0061278936061228,0.0074156058287531,3.07991310088775,2.74930793195302,8.94744499823478,-0.0036003910067471,-0.0055658391046902,-0.0006732581410398,2.5758585157091,-0.696219361917509,9.51183939929425,-0.0267713616914435,0.0097707995164682,0.0015950187435354,9.81033114101199,0.631337736114601,-0.75209484225169,SIT
3.43,0.0032574929149722,-0.0050705389437014,0.0053667456786829,3.13575704465839,2.78650396024623,8.9287792739546,-0.0008239554518215,-0.0032927732859614,0.0003936932560591,2.59804060624638,-0.687015965052878,9.50587851883255,-0.0267713616914435,0.0097707995164682,0.0015950187435354,9.81033114101199,0.631337736114601,-0.75209484225169,SIT
3.44,0.0067653466594473,0.0047762326700464,0.0051844382302517,3.20405594920545,2.79460616473279,8.95433272822278,0.0114306761947263,-0.0023577607729607,-0.0010093158838485,2.57766759570856,-0.642715040192219,9.49947247425128,-0.0338048545647152,0.0150109511837055,0.0042745297051955,9.77908411091849,0.587046344434806,-0.701447156487522,SIT
3.45,-0.0009947899091637,0.0031831153983549,0.0037596863713145,3.2318154384833,2.72881708730174,8.96979298587048,0.0071640842596676,-0.0049346431493069,-0.0018879367140639,2.57001546689268,-0.652407312037559,9.45245490714269,-0.0285258594256758,0.0203752520190162,-0.004001213632092,9.7849005162354,0.590756262090115,-0.813850826207367,SIT
3.46,-0.0031652006633839,-0.0031063035063751,0.0074545468945974,3.16176898542025,2.72775778514286,9.01701664397348,-0.0007208595195677,0.0009806663568237,-0.0047411444884364,2.58165972865298,-0.620713814544206,9.44340352403104,-0.0180162829675004,0.0341204533545527,-0.003021834905612,9.70429848003897,0.594055125617485,-0.83586305916817,SIT
3.47,0.0015252179227441,-0.0066948936385219,0.0028340993459574,3.15465683645048,2.688403346291,8.97959029716409,-0.0062454009059611,0.0025446356174423,-0.0090202970837052,2.58553939452165,-0.615558352352045,9.46691905518043,-0.0091064705134821,0.0380650699552494,-0.0018846284004394,9.68405630412528,0.632961708628212,-0.665263761262861,SIT
3.48,0.0040182927544251,-0.0046004437443453,0.0075351625937978,3.12713065642569,2.69702074816025,8.91227105910735,-0.0033398903205406,0.0049892004565579,-0.0064075164910184,2.60698806902697,-0.606398695620868,9.46115403009481,-0.0110896308511522,0.0239038737907672,0.0029840665449378,9.66424827717322,0.577253969805777,-0.555449117743418,SIT
3.49,0.0038331168676311,-0.0019843516144306,0.0067125121213923,3.12274188238195,2.68115145450501,8.92984995018129,0.0043692249455465,0.0068508999902333,-0.0042564706149596,2.57094590958259,-0.614428594041055,9.51995932902922,-0.0174387194146649,0.0083340341741851,0.0025685231948287,9.75452507967325,0.558036448413674,-0.513314152808081,SIT
3.5,0.0036247891789152,-0.0026674282306056,0.0085148039000217,3.11077431469885,2.68351161478986,8.96182874536046,0.0042941197881279,0.0086878848361639,-0.0012671297335501,2.56789273994471,-0.581439142789291,9.56398241233896,-0.0104857404651113,0.0040038504645119,0.0032788237809417,9.7737716985182,0.554733724100545,-0.527396438870055,SIT
3.51,0.0030468905451069,0.0018818522239412,0.0086709130965357,3.07857209284254,2.64895662927631,8.98874230725073,0.0002042979708586,-0.0016657817324441,-0.0014432348031241,2.49196349849843,-0.587544900957547,9.57838635284032,-0.0099997342905643,-0.0052391586434425,0.0023938450803911,9.69783676499301,0.625712266497322,-0.560312464331973,SIT
3.52,0.0038556251963542,0.0089504555699887,0.0055884354666713,3.08315265717435,2.66504072162394,8.97102833426265,-0.00310936241034,-0.0007790915873235,-0.0011698364154668,2.45310888808899,-0.532593933636696,9.52179755640369,-0.0099997342905643,-0.0052391586434425,0.0023938450803911,9.69783676499301,0.625712266497322,-0.560312464331973,SIT
