time,left_angular_velocity_x,left_angular_velocity_y,left_angular_velocity_z,left_linear_acceleration_x,left_linear_acceleration_y,left_linear_acceleration_z,right_angular_velocity_x,right_angular_velocity_y,right_angular_velocity_z,right_linear_acceleration_x,right_linear_acceleration_y,right_linear_acceleration_z,pelvis_angular_velocity_x,pelvis_angular_velocity_y,pelvis_angular_velocity_z,pelvis_linear_acceleration_x,pelvis_linear_acceleration_y,pelvis_linear_acceleration_z,label
0.01,0.066550131142367,0.144224407237171,-0.0567908188230623,9.83283501487324,-1.32667725591674,-0.938658862298299,-0.0279506505624908,0.129935690213435,0.016260663720353,9.90215564365948,1.65721400732646,-1.41122809707911,0.0208833790378435,0.0478301711088159,0.0144707730154969,9.97933842783965,0.584612197854157,0.635242962330817,SQUAT_DOWN
0.02,0.0527552874089315,0.160105502515019,-0.0658887093787693,9.77207134387357,-1.42658955754233,-0.969921178800457,-0.0263597992090539,0.163780079154705,0.0310466908848702,9.89833858647908,1.79859703200965,-1.30023736337844,0.0419115946454695,0.064297863699324,0.0171283803312287,10.0507069229196,0.604052764554938,0.587929626612976,SQUAT_DOWN
0.03,0.0450623984220161,0.193568034391426,-0.0764177483892657,9.84504005199049,-1.60409612729567,-0.975409265911266,-0.0372823809597385,0.202029534242075,0.0494403443124198,9.82947399305896,1.64501732917249,-1.24247364922301,0.0560668885585858,0.0946897903071231,0.004301162912219,10.0842003357587,0.649328506416657,0.7164973311725,SQUAT_DOWN
0.04,0.049237105363048,0.217087993697495,-0.0847167711142513,9.83346707382249,-1.78295201904843,-0.909557145039982,-0.0239468377349352,0.261705746785492,0.0530411447208904,10.002576504508,1.57503508304366,-1.17225549483378,0.066052498683731,0.120405413786075,-0.0065976356624183,10.1105233768986,0.697260649208238,0.725945619694115,SQUAT_DOWN
0.05,0.0770995099863896,0.230421598981789,-0.095281363207417,9.81227293375816,-1.74241910212032,-1.03932785209973,-0.0525064124098355,0.347764414736644,0.0689447369648579,9.85607000401476,1.90588936369173,-1.24405823838954,0.0712865876194439,0.140074873153027,-0.0103457956495672,10.0580109064045,0.691425296819989,0.790213026040868,SQUAT_DOWN
0.06,0.114423243480208,0.246131417674448,-0.111864345769399,9.73270315667921,-1.71584657665195,-1.20760671317362,-0.0712390169511398,0.396144530449009,0.0863265426520088,9.62292835428088,2.03705834118126,-1.18126454686648,0.046893500745382,0.146220436380658,-0.0096382875290973,10.0136666341629,0.666275650989832,0.757308329687105,SQUAT_DOWN
0.07,0.139868590515757,0.258714646911339,-0.133275180352297,9.59775828946365,-1.77144047472125,-1.37886779645079,-0.0833699720713372,0.425134072219182,0.118928001445353,9.40588332008597,1.85567600560175,-1.13594068334977,0.0073404524202567,0.153498487974547,-0.0154663872221123,9.98050821194579,0.709217940449753,0.676315474263873,SQUAT_DOWN
0.08,0.13674380115363,0.277822106143269,-0.150060095723071,9.53591343253127,-1.68214829370116,-1.1334761604638,-0.0998780067201484,0.464946094874037,0.122570179246458,9.87148090674423,1.89980958924034,-1.26753385526034,-0.0327931016350165,0.188787648355169,-0.0215412189567576,9.97530580983,0.74674193681532,0.473991974234671,SQUAT_DOWN
0.09,0.124142479747372,0.297245105573189,-0.168301787292647,9.5888518279598,-1.58920931414886,-1.04039756413076,-0.108214611846623,0.540076410294414,0.136652805027825,9.70495252403352,1.9850496288574,-1.23754423723919,-0.0351915969725732,0.255796379277031,-0.0288228354998787,9.9842006102021,0.817459371944707,0.423240789010726,SQUAT_DOWN
0.1,0.104457345843476,0.337450745977208,-0.17966301111933,9.73523239781113,-1.53679728417786,-0.932288618183751,-0.12305984800417,0.590379510938767,0.155555112654177,9.68176128382095,2.04313458442176,-1.20158509912844,-0.0211937245472939,0.291583529239115,-0.0275045480371659,9.99520536010091,0.7822053126519,0.88979098208798,SQUAT_DOWN
0.11,0.107757781114291,0.393589078034977,-0.206172345535997,9.87311081115466,-1.46119872847319,-0.828893429915298,-0.10675186170192,0.61142085535668,0.152575296805224,9.74655063297784,2.04549754704632,-1.22759414905338,-0.0389434791051816,0.287261730070125,-0.0216349661790019,10.0429568895775,0.721128526609628,1.16063420721863,SQUAT_DOWN
0.12,0.137228144690374,0.462056919939524,-0.241564113732773,9.919572235973,-1.6208889497611,-0.830528032052719,-0.0840739571883999,0.623281359111079,0.156985295482277,9.67295811322481,1.94018893685344,-1.17395292654841,-0.0470806463413314,0.291587514348796,-0.0247089966007171,10.060913933331,0.68381040403879,1.04220035874262,SQUAT_DOWN
0.13,0.12801125865837,0.522959157227542,-0.262716603617774,9.93030442951123,-1.67757542249024,-0.652476391808539,-0.0936543104042287,0.609156205031683,0.160987636765072,9.47552256759763,1.7387451466676,-1.11539615630078,-0.0409212635930663,0.319419525313529,-0.028171213199442,9.97372104467033,0.720541626418044,1.00322604822727,SQUAT_DOWN
0.14,0.0950374776567372,0.547488283535562,-0.277539134203693,9.84657709242624,-1.69039883817773,-0.4845462956599,-0.102636760234206,0.610262694668355,0.17222092564698,9.52861932858394,1.47621158401817,-1.13608372046692,-0.0296202711706741,0.36696166995688,-0.0420819138319295,9.88641405260715,0.758217001513008,0.967421336576853,SQUAT_DOWN
0.15,0.0483940895152569,0.57186217721688,-0.278911615192164,9.91270726268979,-1.47738863351981,-0.283413927572643,-0.0629972579396924,0.66469905790721,0.185554005882946,9.83740529009773,1.50090742827942,-0.992751521032148,-0.0215854087779173,0.414549291458679,-0.0471149773609708,9.90116108012622,0.776490190447448,0.957023884586907,SQUAT_DOWN
0.16,0.0483252157121027,0.613108218585511,-0.284988830316232,9.90903305985101,-1.34968814553664,-0.249821025764106,0.0191449527694735,0.750907512624379,0.21469914678419,9.79942103657474,1.69142924789908,-0.824542444616807,-0.0168733354659922,0.462188840466184,-0.0449967734377589,9.87009768951312,0.733130006944322,1.02506646782859,SQUAT_DOWN
0.17,0.0601653275374807,0.670914247120514,-0.305235461121095,9.93164186537395,-1.27008970829918,-0.158419524603113,0.114728473088243,0.792917068689158,0.2280875710927,9.76902310664856,1.74292986077999,-0.672129280510887,-0.0266284011398969,0.501971360134884,-0.0338578495959111,9.89193411265558,0.696240475325798,1.07183372466501,SQUAT_DOWN
0.18,0.0604447854909611,0.728599551164219,-0.326968188192447,9.89192176500008,-1.16058756604342,-0.184008358901989,0.169712315041378,0.867886958626762,0.237094499910901,9.92601692744787,1.81700116567988,-0.485949136635788,-0.0539218165387934,0.525144698274626,-0.0224342177427066,9.80371824221143,0.645326199431637,1.02568880428882,SQUAT_DOWN
0.19,0.0693504206759255,0.796765080948168,-0.353210812422525,9.91449317917702,-1.06471447357168,-0.0591762662803047,0.164249673434924,0.98032795063878,0.268079942546519,10.0029839347619,2.03974188108268,-0.64678544602573,-0.0696263371789093,0.550790809239528,-0.0197050796160793,9.64138179040757,0.660997468778994,0.982550913378442,SQUAT_DOWN
0.2,0.024411062435761,0.872049574344796,-0.390389911594767,9.83689679651679,-1.21215039099218,0.239452653050676,0.183663758789449,1.08202427227397,0.299026986988635,9.80172568010651,2.19260490690645,-0.685250970039248,-0.0879420566308345,0.58127217869324,-0.0151121788869415,9.49353793437822,0.653660490115554,1.11107916077511,SQUAT_DOWN
0.21,-0.0664663419972771,0.939542091539396,-0.413120431752118,9.88100196025015,-1.2737300734965,0.382523912764437,0.185708879555848,1.16492448474828,0.312449933633298,9.83773509756732,2.22657163064647,-0.536407262889144,-0.0922714361959413,0.625159986604359,-0.0276288472281307,9.28973968734214,0.638692567700202,1.29001527067824,SQUAT_DOWN
0.22,-0.154337551279263,0.996394007802164,-0.421523768832595,9.91336966993499,-1.24595986082712,0.483438956828477,0.194224561801918,1.22243602489379,0.295904937703849,9.64756781047474,2.35158837480197,-0.361544784917247,-0.0925381291644657,0.666893547834557,-0.0382112706005207,9.12733597325429,0.568016347370809,1.17699127383397,SQUAT_DOWN
0.23,-0.23103281087803,1.05018778891515,-0.435982466910857,9.66487320291845,-1.20433792904042,0.49949540140676,0.258067730774126,1.20256444919765,0.297833703245753,9.39517821276125,2.41761162284323,-0.0122360028712586,-0.0872447638879994,0.712566021235619,-0.0450270336443746,8.97126608813166,0.530630599479901,1.16398950242151,SQUAT_DOWN
0.24,-0.29520239637482,1.09992506612241,-0.439227297893338,9.44555207195132,-1.06095998762683,0.736643887559562,0.32611977664875,1.20304870957797,0.302674709117447,9.14744906772294,2.08559938685785,0.195662385504535,-0.0669396943056508,0.760544000590167,-0.0445089639101795,8.90164480308326,0.581234098115762,1.20532802565345,SQUAT_DOWN
0.25,-0.36798211848529,1.18428231427882,-0.433413604169935,9.36568658260266,-0.90663231897289,1.10958847269594,0.400362871206761,1.2060220948863,0.271877284334525,9.48589231485278,1.68290691294943,0.236833113517422,-0.0374621559342113,0.829386738699318,-0.0301346223327959,8.68698543576132,0.672623794429577,1.46639230843529,SQUAT_DOWN
0.26,-0.395488739187566,1.24009587317492,-0.429105809467701,9.19920475400017,-0.623278793318472,1.24807401935623,0.435897721254473,1.2805803344014,0.272945568959754,9.95189240748341,1.34962631580889,0.192837075478359,-0.0282085917082922,0.863909152949995,-0.0108677032655385,8.40419211979913,0.80280878530167,1.33324972437746,SQUAT_DOWN
0.27,-0.401994243037575,1.27057147856313,-0.432699115887037,9.30395640319696,-0.365453637180579,1.24999231881738,0.466625984575095,1.37132133826603,0.336265223858457,9.73369296413871,1.25451912833131,0.355994951048529,-0.0249639055338417,0.874032370198142,0.0035471167334545,8.23752284815412,0.903874835693346,1.37485601733605,SQUAT_DOWN
0.28,-0.438169874230248,1.29804041407691,-0.440853711546139,9.2937790491752,-0.328029354625545,1.42222966256969,0.515094302067112,1.41198733301244,0.361431484289625,9.61517228394295,1.11767950861505,0.76961915091148,-0.0407091364718193,0.894188544453966,0.0195623257816309,8.05925360193107,0.872142804843472,1.19153858188683,SQUAT_DOWN
0.29,-0.459140243130648,1.3938713794049,-0.44855978737694,9.46635699582124,-0.2742097942365,1.442005948968,0.517611550152152,1.42759246722903,0.359827483269387,9.4235521597441,0.673549756155015,0.799399892988451,-0.0730081822084095,0.918338852101947,0.0214492944853359,7.94152502245698,0.879658701026456,1.06118553911447,SQUAT_DOWN
0.3,-0.543044349933807,1.45405804776291,-0.454516311275252,9.62780017063871,-0.036875950696504,1.49087142968952,0.485353390193149,1.42123938729405,0.344073391474918,9.46106077281402,0.107139927901511,0.944517956733112,-0.120181990983833,0.940221552804652,0.0176108140538787,7.80851551290342,0.794713832118379,1.14814012377971,SQUAT_DOWN
0.31,-0.591778703387185,1.42475272684366,-0.442138196345078,9.63321471016634,0.154829962307692,1.30611304405994,0.539726957543845,1.56650892993704,0.308447378139175,9.55732587043287,0.141764060887086,0.845814739909794,-0.169498009547842,0.977290855929681,0.0090571318012896,7.74147550796832,0.752099289401797,1.16888016472146,SQUAT_DOWN
0.32,-0.569033899064793,1.38643078001094,-0.450406354246643,9.50184087135651,-0.108429397298689,1.19100471555803,0.695938153698942,1.56900893020539,0.251981316067335,9.05465254889608,0.360728341718897,0.619826737160713,-0.169498009547842,0.977290855929681,0.0090571318012896,7.74147550796832,0.752099289401797,1.16888016472146,SQUAT_DOWN
0.33,-0.565991788564951,1.44262151951896,-0.464068507146443,9.32405519921321,0.243428818257071,1.58515517434283,0.902497031057731,1.53382031407155,0.210660024347795,9.07046058888013,0.0125215139436107,0.356194882343695,-0.19055044578329,0.98574916566188,-0.0044739340814239,7.73903168647138,0.631279575252678,1.09704016001168,SQUAT_DOWN
0.34,-0.573612136425676,1.43531445293657,-0.471692440998895,9.21393762085973,0.990461170579388,1.58204728712199,0.975935557292845,1.57066868394405,0.206623240343969,8.89774258599485,-0.315051160304888,0.964417250091208,-0.215145250348507,0.994298569874218,-0.0147100517324084,7.87605783892992,0.582982139100047,1.19074396965351,SQUAT_DOWN
0.35,-0.563084807820067,1.4700735947145,-0.492195555910408,9.39999879454792,1.70086757164326,1.57681188551397,0.922967955666336,1.56401207523102,0.221782906987861,8.93871707472575,-0.0637776866981646,1.4348202018821,-0.243382935879489,1.02314424267867,-0.0466772657104602,7.9364267797551,0.538159126643636,1.18090572345877,SQUAT_DOWN
0.36,-0.514623279513079,1.48251213590428,-0.517796048262032,9.31147050918422,1.95197114373622,1.72334812319365,0.819505049334271,1.51677409695293,0.233560803785898,9.06341726667071,0.441581781653012,1.79988549035287,-0.242708202926094,1.04849911071955,-0.0700861475414868,7.7660498449201,0.561114044299572,1.41618513310031,SQUAT_DOWN
0.37,-0.500121698320352,1.41910359815022,-0.542662203293142,9.40756050568835,1.11772641582635,1.83593948839529,0.726404600568546,1.46827564023387,0.202453389804209,9.39767320617472,1.3025931495887,1.67900807133422,-0.235172178820376,1.05215213724985,-0.109622876324543,7.68098999823708,0.674628385084127,1.6406298827535,SQUAT_DOWN
0.38,-0.459601630358605,1.4618195163784,-0.57391679688631,9.2107579468056,0.682549322683515,1.69053901967865,0.583444327818681,1.45892290216028,0.215796414965665,9.24310988142418,1.52616416600187,2.02450335671105,-0.207475933020334,1.0360423872304,-0.138550663824127,7.76097296639452,0.897346619734252,1.3497090948539,SQUAT_DOWN
0.39,-0.320015760192217,1.51703107821681,-0.587971708955105,9.03197481992062,1.02306588803438,1.87947784409247,0.30105199593498,1.39650453772815,0.25771781525676,8.95723889324017,0.933804434854491,2.28113006651135,-0.158571715097977,1.00838997637158,-0.159828569068377,7.84937400746936,1.03156903747615,1.37841727675205,SQUAT_DOWN
0.4,-0.162850194562049,1.51128727752957,-0.592926956982419,9.07601802922204,0.631403394848686,1.9626407265743,0.0844133197042172,1.35317535051841,0.280141809614628,9.06918843591158,0.575529717888456,2.24817082041209,-0.148209421300988,0.979177447450604,-0.161651171736451,7.97128566018193,0.975137061104194,1.30605551964361,SQUAT_DOWN
0.41,0.0700591149702877,1.55329093603405,-0.639344971028409,9.29907464364341,-0.56647934277057,2.10385267167552,-0.0031903190551006,1.34472281866796,0.293703722681864,9.29158611189238,-0.321891699891306,2.21238874255967,-0.136178986454788,0.958524285264172,-0.149103812868264,8.04751056089871,0.889728653638334,1.27339035248795,SQUAT_DOWN
0.42,0.215942157172629,1.53003388963991,-0.678437021343965,9.11802838185812,-1.18898173037901,2.84544070898124,0.0256493328306916,1.34303169534445,0.26772035156223,9.28872754665169,-0.60181584414261,2.14137373264854,-0.132329544361719,0.932095332863529,-0.117029860531692,8.20702261934719,0.729389368495265,1.77603167659372,SQUAT_DOWN
0.43,0.267741442707128,1.47186959678394,-0.698924609076976,8.79923118192141,-1.11095524242919,2.66320501299926,0.139132888723132,1.33460173555722,0.252197077054949,9.06408011522379,-0.721176309171754,2.63414657265891,-0.148681319099295,0.904130659571542,-0.0628256621746164,8.26098111647417,0.568921464651362,1.78484886431516,SQUAT_DOWN
0.44,0.328113657956778,1.40707841650178,-0.683194696487345,8.53372093514841,-0.255649664187433,2.91410200067793,0.248408712557724,1.34135582269623,0.220313860781872,9.06533815229046,-0.639100447045126,3.05784278407014,-0.15976899428125,0.863003993202828,-0.0111951210087493,8.31764644828548,0.394654641081024,1.69132095532735,SQUAT_DOWN
0.45,0.258783451478313,1.29579990652909,-0.64174693767832,8.54356098271161,0.242712382827369,3.52846653464697,0.350029278394508,1.39475584905687,0.170033588332642,9.2209201543943,0.302574473262525,3.29301002356255,-0.174676743322563,0.797684674708697,0.0186687313837761,8.28111291356281,0.213952061838476,1.62220627511432,SQUAT_DOWN
0.46,0.110000866670658,1.24393531166713,-0.558126023960491,9.08635439068427,0.564223812759517,3.77074082347133,0.351397758012174,1.50333368978483,0.113448333436656,9.18917593280862,1.47506497218787,3.4610323369445,-0.184018061317555,0.763474113224561,0.0339091164284686,8.24419673311009,0.0213717797619799,1.47143609855303,SQUAT_DOWN
0.47,0.0250510505561215,1.21924628577935,-0.452423881351311,9.36135844175304,1.16753672132121,3.66912291790249,0.188945156519262,1.59696653632807,0.0606346272675339,8.86786227487232,2.28155087626204,4.02302968265062,-0.197837352504158,0.750216109258632,0.0138388471981248,8.18883390492227,-0.113849569553087,1.69248179265154,SQUAT_DOWN
0.48,-0.0033772392149827,1.24857188581708,-0.340909521318055,9.45033253317916,0.98982741747797,3.59727589636195,0.0039848902793604,1.61955764867103,0.0270337686629087,8.56809578032849,2.41857828293445,4.06866583827431,-0.201881694410237,0.755776684230192,-0.0209700782702728,8.14870156382885,-0.0766867255591529,1.74926857804175,SQUAT_DOWN
0.49,0.0057083524008633,1.34054670748222,-0.288952475134136,9.32334488665209,0.861817777066659,3.26682995066142,-0.131410564980991,1.5978300088167,0.0283965674059212,8.36184022065707,2.49892091772961,4.18675283259565,-0.176008153890128,0.730705216920305,-0.0623154550537308,8.18180669892206,0.0543614475111586,1.65216490037279,SQUAT_DOWN
0.5,-0.000633155594617,1.36022298845113,-0.248692671937753,8.82741297565459,0.633919297882521,3.71533545531766,-0.273550622996693,1.53424297588042,0.0272612861498578,8.37071247798982,2.59430654482009,4.1305517070119,-0.127929261472082,0.718247900337963,-0.101771140302016,8.23899208513564,0.16740698128516,1.73616402229151,SQUAT_DOWN
0.51,-0.148794446903934,1.30259248577996,-0.197446969428029,8.72447855674041,-0.187032447564145,3.67454780380236,-0.368288014305661,1.50938054229137,0.0110515528638966,8.41542665154858,2.36366287307725,3.70294007793984,-0.095986401346892,0.701915131987348,-0.138226748891324,8.2524697743552,0.45162653422996,1.97044521385708,SQUAT_DOWN
0.52,-0.192007797979909,1.32862945988889,-0.149068042690455,8.64243375595052,-0.0059417885827224,3.36703963971022,-0.447543555753452,1.48490316916368,-0.0229525744738397,8.53511252420805,2.2473715356462,3.79860847141718,-0.0505578948056974,0.695758015961511,-0.154644809923406,8.38238910883854,0.658754577916471,2.1061702490116,SQUAT_DOWN
0.53,-0.145937834993375,1.32946639365998,-0.120819039190064,8.32453086170504,-0.268277749016597,3.52948463819612,-0.527181807585613,1.47675012116306,-0.0550164218749236,8.38672163604703,1.94915767460327,4.17751723055155,-0.009784558992968,0.68053655646938,-0.142928089090649,8.54944795151356,0.931350212412956,2.07984952401312,SQUAT_DOWN
0.54,-0.0592469834184201,1.33410272063551,-0.12698928414842,8.26853298896784,-0.743739287025865,3.92235276850606,-0.613725627900564,1.45498006400114,-0.0779857024125033,8.63400954186177,1.38750541382069,4.08164394216663,-0.0033690915212379,0.675445335690121,-0.106636734659126,8.61640040315427,1.09325313843214,2.40094734250376,SQUAT_DOWN
0.55,0.0901822928736169,1.3143394308312,-0.163531379733541,8.40174750821132,-0.342517078387831,3.70651435857306,-0.66126054392555,1.41471595322962,-0.0950745725180605,8.81929320044614,0.881791007533538,3.88446587589754,-0.0303101651415954,0.68736008581251,-0.0676464137813931,8.7180715413949,1.09278328976257,2.67411696047588,SQUAT_DOWN
0.56,0.30128958963426,1.28638093395378,-0.210989362288325,8.62957797065162,-0.140056436911988,3.82366626598597,-0.623612361814741,1.33702763228236,-0.116654839245803,8.64459115345497,-0.0301715699806448,3.90902308762262,-0.0553406137332706,0.668958783948684,-0.0317609151874468,8.9370585016657,0.913230783182631,2.61641105497268,SQUAT_DOWN
0.57,0.449291925147454,1.27794889436261,-0.246646298435088,8.91507635018693,-0.123447306879323,4.07524209056211,-0.519675155306907,1.31598084806188,-0.129743736758821,8.88724946522734,0.019163249561397,3.91271861013151,-0.0803774730375969,0.656206665492102,-0.000630200162607,9.14124671286963,0.756847495812221,2.81335427972927,SQUAT_DOWN
0.58,0.546599209356888,1.23816029730204,-0.249235589788102,8.92055743380493,0.689749992281149,4.2732394447725,-0.437227669379822,1.37200636646981,-0.132679522811999,8.92349835531703,-0.0617938545103385,4.48629378350439,-0.106379051684262,0.652129934859291,0.0190472811936915,9.33321955695085,0.68350295076855,3.0402288908819,SQUAT_DOWN
0.59,0.575605191741932,1.22083481938832,-0.217780097802119,8.89305860168335,1.72232759341365,4.21014282189818,-0.369383315155881,1.3818026570355,-0.116547991412109,8.91414561507849,-0.748072942352125,4.39606077053637,-0.0858012406788497,0.651151459997073,0.0282257722930447,9.27048158344494,0.65238243984369,2.93111811866327,SQUAT_DOWN
0.6,0.546629763660434,1.17956087043112,-0.168124536613796,8.91618183319102,2.35153851597069,4.02264829494671,-0.303360940232499,1.38029760192167,-0.109718391083548,8.74560269691227,-0.864231126105024,4.30801753794265,-0.0628574775206523,0.659019886030046,0.040596652486119,9.24180908895427,0.566762964828536,3.08697733062434,SQUAT_DOWN
0.61,0.45752340550789,1.16877861002284,-0.150357308964996,8.54759601661635,2.71273724732503,3.70487440611095,-0.269413156123236,1.40971174576597,-0.111484660850692,8.68614947835012,-0.731742696491185,4.47753512357859,-0.0803601704352352,0.63670433444754,0.0434161275257213,9.27113128281544,0.378347753256207,3.28128310494804,SQUAT_DOWN
0.62,0.310720516760695,1.08529384141687,-0.14947298439594,8.34832067724046,2.80612770850012,3.94175317692367,-0.219556148795654,1.39385964759108,-0.107304119235513,8.21544804495934,-0.888427091472664,4.70214315690788,-0.0771660505230746,0.623148120103018,0.0433127169716866,9.2534761070984,0.228346604164339,3.35709683556722,SQUAT_DOWN
0.63,0.135709479829907,1.08781070856,-0.167853397936382,8.2045693574187,3.25140518469107,4.34895450083932,-0.157391797214651,1.3781481048275,-0.0983458452485095,8.21429753904925,-1.22632295685762,4.70409573523855,-0.0810983199390217,0.590154229150107,0.0466025233058764,9.14659242084992,0.0453321819246823,3.24004801148298,SQUAT_DOWN
0.64,0.0103188400510142,1.09904168484915,-0.178312856543242,8.0004744338309,3.21550538585647,4.58704211465186,-0.110537520058615,1.38920413816289,-0.0659423454759201,8.13406390713558,-1.36524853005832,4.82158574662088,-0.0627606602284369,0.582498496735291,0.0477099413662014,9.04389611332007,0.0782253471131011,3.50032321781691,SQUAT_DOWN
0.65,-0.0818940554026859,1.14560467209584,-0.195968304100053,8.04520113760902,2.75580830114536,4.71231682868101,-0.0608204148495925,1.38268065662992,-0.0250357135711602,7.90684334199409,-0.98119195033335,5.32999382151119,-0.0441067804049661,0.588461424545318,0.0366384111777361,8.81078227660834,0.137578511049106,3.71361542258891,SQUAT_DOWN
0.66,-0.138558566336032,1.14066578837977,-0.196817922592918,7.92696681305779,2.42589297001921,5.24770848888888,-0.0360275730878972,1.30606565964349,-0.0196728143454628,7.79888131999565,-0.854203146924714,5.31714717260298,-0.0479984000305317,0.597641598121255,0.0241106443607309,8.76030177527701,0.271750914055265,3.81729796896203,SQUAT_DOWN
0.67,-0.173792476736388,1.07967946665323,-0.181562611611461,7.77793457900649,2.09243679742318,5.49279433923485,-0.040226164418703,1.29101534069562,-0.0042486515168884,8.00892254581556,-0.894071058397837,5.0889208591084,-0.0329427453215717,0.58731601137501,0.0051863852969862,8.86823007340857,0.402066399179321,3.64072266053028,SQUAT_DOWN
0.68,-0.196383173163788,1.03650718330025,-0.173998065079815,7.71382452840657,1.59743872034209,5.61351667417112,-0.0685403371464362,1.30203215380593,0.0254352573961235,7.77467791741642,-0.620793152277525,5.10986751352693,-0.0230329321454614,0.569788697528888,-0.0050870858901521,8.9134480958643,0.56547762063399,3.70375977660133,SQUAT_DOWN
0.69,-0.170128851387994,1.02571972134951,-0.169179497616629,7.56153732695311,1.20323526970452,5.60246021180169,-0.0887936896701001,1.2906960668393,0.0670905615190735,7.55737903625529,-0.590293102312211,5.6047222465438,-0.0560586168780371,0.580146788975043,-0.0172978528985227,8.88140443998378,0.703301336556705,4.05089689427472,SQUAT_DOWN
0.7,-0.139995848890181,0.981463148342507,-0.167405027252909,7.50728478111657,0.965669568775389,6.02095247400041,-0.0741470342825828,1.24373651837858,0.112159196203949,7.32667507715606,-0.606104758734635,5.94828186429905,-0.0594818176992149,0.590679005215382,-0.0278371842607055,8.7850152899594,0.724526365121537,4.15463200614961,SQUAT_DOWN
0.71,-0.0731722191423998,1.01399041553737,-0.183102905671558,7.68367429889063,0.448160970217419,5.68688498372903,-0.0535572678830315,1.19954260382326,0.1606423924575,7.22853745044806,-0.478664905497845,6.2434916514062,-0.0185052629184922,0.571618608289426,-0.0292857807072081,8.60520528970434,0.868776449947191,4.09935142523203,SQUAT_DOWN
0.72,0.0035129898032585,1.05366711695684,-0.197663043147418,7.67272236336356,0.767333346832019,5.49956252599128,-0.0507578916127757,1.20042500244599,0.187329233503952,7.55098922438958,-0.0412366212595976,6.46902610785471,0.0273405755249599,0.541339952474901,-0.0314113326567757,8.57248758096769,1.1350131518861,4.16275162821006,SQUAT_DOWN
0.73,0.0435075241412058,1.08974683534098,-0.221013355752149,7.61085433375253,1.19864537336217,5.35040488035089,-0.0491534154563041,1.19747644926156,0.185787948159319,7.57528624585998,0.203493756223693,6.57031312920177,0.0302707536050273,0.504523871680659,-0.0283224835662244,8.61424741416886,1.44673781774788,4.20418416879845,SQUAT_DOWN
0.74,0.0883213698557739,1.08876685982549,-0.240053246288762,7.44153765395974,1.03552124654978,5.54565701283561,-0.0717917020718156,1.17283785597163,0.162985379084937,7.44826490797023,0.254951202088364,6.39109894733484,0.0270478708643814,0.511548250517323,-0.0395440264186198,8.62131544127206,1.44642606937809,3.99310943045127,SQUAT_DOWN
0.75,0.0866489182740802,1.06641334696085,-0.260227281398553,7.08869389672417,1.0300357934067,5.66293567577264,-0.0939430925430518,1.18613664090813,0.119631555554158,7.22518243839227,0.303860281583414,6.22799689481554,0.0156931667959558,0.490956502854452,-0.0369642550287535,8.40979586356927,1.12094175135713,4.32851955562386,SQUAT_DOWN
0.76,0.0718557378084773,1.02292384538694,-0.281900774046322,7.14344999429114,1.50892920982512,5.98394633914931,-0.0907852397758585,1.17145539244688,0.0853001508563983,7.00897264607429,0.262929230381697,6.15367383175989,-0.0003497568552698,0.435676543931885,-0.0211213054985356,8.56526310086102,0.696208835302382,4.60081251640053,SQUAT_DOWN
0.77,0.0197642463177212,0.982556375822191,-0.272507442140662,7.17907366882745,1.80108996044476,6.4704056413365,-0.0651885432292883,1.14511579199071,0.0536148090462714,7.09112540871418,0.335386026461954,5.86035106770069,0.0174542096206114,0.36254637830502,-0.0279185056272036,8.7882710780113,0.503746383180242,4.64815684547638,SQUAT_DOWN
0.78,-0.0275277058015792,1.00078847103749,-0.255423676186217,7.5923837613265,1.36830536389934,6.27566174772444,-0.0277630196285522,1.1526667546295,0.0243684567163574,7.2698163034757,0.502551587587625,5.80099478338993,0.0845786809547564,0.304862041782515,-0.0387523964219861,9.05064773265282,0.390325667892121,3.85411828164312,SQUAT_DOWN
0.79,-0.0738879526590659,1.02116585056126,-0.224446421930496,7.64451757752817,0.826538149261981,6.16026010279036,0.0339368434396543,1.14824973157552,0.0109191452329503,7.22626471393613,0.563995106258613,5.99205713362259,0.0835310857252554,0.287050407415597,-0.0448510942525286,9.0514226109487,0.411711633420137,3.51078394999626,SQUAT_DOWN
0.8,-0.0869604481225955,1.02366170426729,-0.21033449536063,7.34096422285102,0.584099215289814,6.4069142488823,0.0761516394610936,1.1379983699687,0.0080370812236605,7.15120110795422,0.672627903385181,6.29515753247116,0.0779598435434638,0.353401970272287,-0.0569810985054832,8.87727316703401,0.546749208296929,4.30886799689382,SQUAT_DOWN
0.81,-0.0356559639176173,0.99488940332446,-0.204735603789047,7.06599305133667,0.546484263735863,6.74838457712166,0.0769579080405908,1.12496206798876,-0.0009870504789409,7.0959274763991,0.668046067467942,6.52042622085478,0.0998730786131393,0.365171830693816,-0.0574966653208686,8.90196641962639,0.638937966007705,4.71578484059706,SQUAT_DOWN
0.82,-0.0250114076681244,0.939188148323929,-0.208933970621888,6.95098407717421,0.463819733974341,6.78290065699126,0.061370473562618,1.1061107935167,-0.0231664007320576,7.24003255566607,0.530027670604691,7.04304421173387,0.095515421589586,0.316377715092995,-0.0565118784085576,8.9642677823724,0.550357319886963,4.61312523836341,SQUAT_DOWN
0.83,0.0208300574229868,0.889023126343984,-0.212581486572494,7.0280876954375,0.618837609499359,6.79870078018052,0.0284298735510603,1.10610744591677,-0.0335493163513831,7.50066922399935,0.774563435377896,7.07387056309498,0.0686687849188156,0.269063744645267,-0.070592417134553,9.12706924085651,0.654578477104136,5.0536143764958,SQUAT_DOWN
0.84,0.0528818194937662,0.867327016218784,-0.189722256346791,7.13093181352226,1.12908286258626,6.82550234816554,-0.0356111515933894,1.0999718645042,-0.0496247757829408,7.43565677824992,0.983878739935066,6.91431781429978,0.0704951899262196,0.220885815419879,-0.0719630154246597,9.29885266135144,0.803712135184226,4.9023059832316,SQUAT_DOWN
0.85,0.0247259249030135,0.847947409612073,-0.129240283052274,7.34716232933796,1.86736829971855,6.56551999325696,-0.0898584942790656,1.1003071827652,-0.0550806870231281,7.04121890116591,0.855959067914418,6.92013168251361,0.0917732284235672,0.217835558996145,-0.0889543958201201,9.23486346693569,0.872230380191158,4.6841972623899,SQUAT_DOWN
0.86,-0.0390012219894899,0.846749530717282,-0.0979404614815055,7.22824864977945,1.79200127622709,6.40907373291175,-0.111272870001306,1.07850619370872,-0.0433338905093813,6.76690292320559,0.646324288790427,7.12628223744128,0.094833885758707,0.248178642463906,-0.113485010614243,8.97867889350987,0.93617123206544,4.83542674356918,SQUAT_DOWN
0.87,-0.0520460259709343,0.86558598585541,-0.104777136408174,7.04784801965454,1.75104209384302,6.91904475193791,-0.107930672974443,1.06283836528561,-0.0397817079579034,6.57062348137414,0.716192810301123,7.30737657239642,0.089265936926806,0.246902272516906,-0.132227281387122,8.90840732937691,1.0317069891606,4.97069396680783,SQUAT_DOWN
0.88,-0.0611722862311223,0.841550855914932,-0.133466293984836,7.020138003193,1.41940966922149,6.7374761724554,-0.0982518416798222,1.01163427095245,-0.053193044645537,6.42876343595258,0.510239563352183,7.24267012861272,0.0980967667470639,0.227136853194459,-0.147191365051066,8.91134676337598,1.04367213025485,5.40622761786607,SQUAT_DOWN
0.89,-0.0578021223696067,0.825473765519033,-0.156010796691593,7.07465550322193,1.14618359424887,6.81688787649059,-0.0727983243704823,0.961009300572484,-0.0553459992673367,6.35542430113828,0.296513341401109,7.61042434276111,0.101894298133147,0.188377186083375,-0.159069438960652,9.22561497816446,1.32251294631094,5.00276922635003,SQUAT_DOWN
0.9,-0.0468379449399979,0.811503653050436,-0.172436200203864,7.32330875894115,1.05489892203309,6.93872228663818,-0.0798286792219078,0.921845769431349,-0.0608647531120066,6.49860828112239,0.126087058020051,7.72862831927382,0.135312903948666,0.194442490580402,-0.136741663249735,9.42984644226297,1.6717158958625,4.57560957378634,SQUAT_DOWN
0.91,-0.0356089272043523,0.778503938644449,-0.15922484480196,7.44249147804304,1.04165808997605,7.02138324343894,-0.0593180543241672,0.871166648274637,-0.0758910824793106,6.46445482474153,-0.178169617406991,7.68431226666305,0.119454725597491,0.220031657364312,-0.100947948356201,9.42267620665356,1.860757261636,5.01609802266592,SQUAT_DOWN
0.92,-0.019271257659229,0.76411862957405,-0.148439847935844,7.32902335499307,0.733411141726479,7.03588224840781,-0.0144347191429273,0.837740298397618,-0.117591814671777,6.43529563930873,-0.0649335523538214,7.42040287330818,0.10072762303672,0.248742780945406,-0.0530234215733579,9.48648282387188,1.76080637738525,5.55786770115995,SQUAT_DOWN
0.93,0.0011788778895593,0.738287476883225,-0.140816253462118,7.14630728168069,0.460723631310444,7.10331426079881,0.0366121174995938,0.824187267093214,-0.145285546064343,6.40769601694722,0.347342867389919,7.42784288062691,0.0934689971619502,0.247326857852316,-0.0071743551640714,9.6610563563514,1.51147547186184,5.49231814483007,SQUAT_DOWN
0.94,0.0558973803448776,0.772266760847803,-0.145027599127565,7.18232184792701,0.631153582230642,7.39016832077063,0.0574794107396024,0.807288670005717,-0.127122208118509,6.55404197571244,0.4903744415345,7.74484781633861,0.0655844965642683,0.254907020618534,0.0249474584059925,9.75825067362875,1.17798345124192,5.43883593486569,SQUAT_DOWN
0.95,0.0897267560679318,0.725783676734388,-0.135970612006712,7.07414268154347,1.16752717434183,7.56350847842185,0.0482273777810082,0.803086696323451,-0.105771920044834,6.70403050854761,0.533215739584483,7.74731715170984,0.0042299785612489,0.281410165875788,0.02086271609051,9.74327571339752,0.802120714985444,5.5213145677427,SQUAT_DOWN
0.96,0.0843006122260245,0.709164252444304,-0.12229705340984,7.24591991777675,1.5241855182809,7.30524018222597,0.0282083021362159,0.795641582452135,-0.0957227141355958,6.72500879736512,0.477465395744777,7.80697719216466,0.016914511454493,0.287033416327705,0.0001190770266466,9.68577163661824,0.461802126643117,5.50488584790288,SQUAT_DOWN
0.97,0.0599502965152462,0.697228730452562,-0.109698096593405,7.26097499590762,1.56059744262416,7.25637054542242,0.0383917713658829,0.773455160082831,-0.0877826214590944,6.57117202822647,0.491080991474018,7.97838652886924,0.0228042638142763,0.182630069010192,-0.0267164846993384,9.50500518541204,0.304112958331275,5.56838309928977,SQUAT
0.98,0.0238327568660888,0.689977036497309,-0.106389054639986,7.06060028682398,1.64123944486683,7.41229597860462,0.0409175031720097,0.74387962534545,-0.0712515543983538,6.27331174708836,0.408462985850532,7.89616942487259,0.0335645152069188,0.131848197671287,-0.0636983566678462,9.51726543060982,0.365495724037258,5.40536805920183,SQUAT
0.99,-0.0303605037134241,0.634944802113394,-0.104455438920709,6.85563488986763,1.41906810449968,7.61901208311588,0.0416119847685363,0.684814877143905,-0.0606686216871177,5.91223144767682,0.405319630686847,8.11921427319019,0.079613312363166,0.139688909175329,-0.0942588320169866,9.40036179910981,0.577245788332066,5.32020037790394,SQUAT
1.0,-0.0670481411390921,0.639318282169284,-0.0878208348767534,6.90670195155682,1.24739703549373,7.78711173454103,0.0188411136562018,0.653303553352219,-0.0482703372137209,6.01892450156659,0.213941237937965,8.40883799157334,0.118708875928929,0.150173992786765,-0.0960000802960591,9.33765012757495,0.99086612466278,5.27651311908919,SQUAT
1.01,-0.0982866049386276,0.608337377105191,-0.0597210933199724,6.70280506063225,0.916750266393975,7.78113968772646,-0.0184219126366521,0.638743329635073,-0.0266344929117684,6.23804263805396,-0.221635641641233,8.49478675256536,0.132366193195384,0.169860411929274,-0.0739073807441377,9.38110375328925,1.4649950311758,5.62315054773764,SQUAT
1.02,-0.0919880471087589,0.579909170477183,-0.0453394442341813,6.46521266831,1.10968865436356,7.73388381734921,-0.0021992101834647,0.620191558734643,-0.0181390533959817,6.34938726144816,-0.669083793919818,8.64763435825335,0.135258537499242,0.186501865335541,-0.0424075067286956,9.49787965654695,1.71554749887741,5.85757275467953,SQUAT
1.03,-0.0796241541824187,0.580555104001254,-0.0376197498069408,6.3239966478743,1.33768333565682,7.80037422131684,0.0448400076146913,0.585496941523161,-0.0162996963185472,6.26520409786045,-0.535667705350654,8.50366340633631,0.134339193623972,0.208859745694424,-0.0126536716219385,9.6038679273071,1.77075552197343,5.96623012961736,SQUAT
1.04,-0.0502657029266466,0.551693512869776,-0.0411536976678862,6.31613162522983,1.43291994293775,7.92026336938612,0.0740391270138504,0.553514843207294,-0.0144729847891044,6.07923055011133,-0.120028634140865,8.21861088506754,0.14781674134197,0.226433701713254,0.0126822692842596,9.62273626240792,1.72806586030506,5.94295533598459,SQUAT
1.05,-0.0233981942985053,0.51366793738158,-0.0553352184492618,6.43172337737727,1.26797302485646,7.92861893479807,0.0520410263800185,0.551844413526414,0.0012909707953555,5.85324738345343,0.0351527179812718,8.1796863733461,0.161855215255865,0.237500255461454,0.0213624005727134,9.46069972368835,1.57066632352152,5.73574397505964,SQUAT
1.06,0.0211399588260486,0.493952908210068,-0.0695951714861148,6.54992695113395,1.03050524447293,7.79748916664496,0.0227184886037356,0.534212850488033,0.0239272996483616,5.74313257418489,0.150544677055164,8.28590876193699,0.149235092150814,0.232947467911617,0.0126257161296232,9.35361939449411,1.31269915502493,5.57923450389476,SQUAT
1.07,0.0440034725245748,0.493982677193069,-0.0728167513764064,6.2957303330127,1.13345637321299,8.0074186207842,0.0046452237817349,0.517396586902857,0.0554844020888474,5.66911018416568,0.120828961983068,8.17987327796351,0.118625465100131,0.237586609502512,0.0027678747072804,9.18460835063861,1.15781850486177,5.20176612685133,SQUAT
1.08,0.0161731057536608,0.456820680733044,-0.0715780488071903,5.9486106253134,1.21997067406402,8.07959787768032,0.0339461314678003,0.486146561155853,0.062073554790286,5.69297403118279,0.369693093154213,8.13267361101312,0.128082761700983,0.246674603893997,-0.0180627888647228,8.93441041565522,1.06938512480453,5.2281760801159,SQUAT
1.09,-0.0272538690144082,0.444323728403218,-0.055694714389899,5.77184438540566,1.19047539876744,8.15227304591678,0.0533851123136705,0.477454417263227,0.0587199035747369,5.74353867525582,0.349618287523948,7.99634738435031,0.0840821283105839,0.203796028287656,-0.0420268264614221,8.76135449076837,1.01070201196096,5.37869549391802,SQUAT
1.1,-0.0516830279449926,0.418723609244846,-0.0440284491820614,5.50646962215516,1.0270152127975,8.21960643107408,0.0477593577048029,0.492220235047036,0.0558136025633934,5.52516912477735,0.35209940804451,8.11783891575194,0.0427869135038258,0.164771920997745,-0.054300744593636,8.78741750622719,1.10201710800287,5.39081408528652,SQUAT
1.11,-0.026491666827972,0.373614925419229,-0.0307878985947855,5.63919500638711,0.990922993208091,8.18782923739313,0.0392280406189361,0.485618182573916,0.0416239150181401,5.45242707256465,0.483048603972547,8.26360755398429,0.0666742088270782,0.147471994952171,-0.0651966547948638,8.84873171396884,1.12163137031963,5.38725399470595,SQUAT
1.12,-0.0288792884300498,0.383822801837521,-0.0113490061142796,5.83095823567456,1.11762585242275,8.28327569172235,0.019838540080271,0.468680765797868,0.014972831410592,5.41305808760031,0.7517548871827,8.14152793301365,0.0942132132386461,0.128001939176889,-0.0737620209294018,8.76989656539695,1.11624430906571,5.30331702569349,SQUAT
1.13,-0.0644801144905597,0.364485383542954,0.0104516900986568,5.69132701035615,0.972740144399088,8.32796116726369,-0.0072926118034906,0.47115715017993,0.0082579500064943,5.01995731480497,0.970979102381145,8.21568551646476,0.108466516970775,0.114320999496115,-0.0881647127381151,8.66046656804815,1.24440665900668,5.31883278784259,SQUAT
1.14,-0.0725884897994794,0.337760176210228,0.0368851013253548,5.4777643401213,0.670640952497998,8.25451855321911,-0.0384299778362419,0.467824039780025,0.0168785380321902,4.51860885245254,0.692059877841199,8.69378318257588,0.113499896627443,0.111834568907678,-0.0995592873969764,8.54590815744586,1.36073596060079,5.30157943178799,SQUAT
1.15,-0.0573554062083613,0.325235412512436,0.0549382054172278,5.37156217761436,0.435700766076426,8.10216681804714,-0.055575256434313,0.428159608373891,0.0498873413518586,4.49880835131253,0.227109625967478,8.90239482827733,0.109066203585157,0.0862719073772559,-0.0903881885587927,8.42866628747955,1.34164374656579,5.24577065737809,SQUAT
1.16,-0.0083818641757522,0.333998950062164,0.045821626192167,5.39797943663478,0.861632470498482,7.99737868496769,-0.0486841399010826,0.398277993298285,0.0747297722963112,4.47022029057881,-0.356607329206149,9.01782201534732,0.103858870152726,0.076068101285985,-0.0755582291343602,8.32628827426524,1.38672298620928,5.36683255004958,SQUAT
1.17,0.0317021271028777,0.326954961078105,0.0439901333085341,5.64866612286469,1.15238308503102,8.06519448773518,0.0081379363767396,0.342794620393938,0.0507226609322366,4.51880902340264,-0.42671488322194,9.05067918872904,0.0958795724099064,0.0593813722796513,-0.0553751456439514,8.34399003560647,1.4204511120295,5.30079233484022,SQUAT
1.18,0.0754735946986883,0.332565366047158,0.0474876272906671,5.72898220986387,1.43011508285741,7.95815739915038,0.0744037645768169,0.290734144484893,0.0038304787656558,4.50810506950592,-0.0334641431953178,8.90263031266601,0.11677462008128,0.0596436984336054,-0.032555012922325,8.45733221201063,1.3651820454555,5.14231717455814,SQUAT
1.19,0.0824809478587695,0.360363010707274,0.0607131012073276,5.54324443846603,1.54028434239231,8.03877328237156,0.102667384438614,0.273537094267256,-0.0231763418143952,4.66677183185874,0.30923675891338,8.68406466420835,0.117204086972748,0.0422849863490568,-0.0121666717286482,8.53185767585963,1.18550611934271,5.34619962613427,SQUAT
1.2,0.0785311915819523,0.345587076105576,0.0597478597037017,5.22855866403974,1.70739829157907,8.11432404897594,0.0946237936798802,0.272121938332834,-0.0104076956411613,4.56338076588013,0.502429901730386,8.73627722309023,0.103807359714043,0.0072743710722149,0.007412668887125,8.64074182340306,1.04860820744744,5.42906735973167,SQUAT
1.21,0.0739400949231862,0.32510720535099,0.0424806270210593,5.13216836276251,2.02517534254153,8.13792385234107,0.082091849223131,0.257926142458963,0.0239250059749196,4.70892924364017,0.564901744312651,8.87748789223872,0.0927949608601733,-0.0077183719758082,0.014768786830877,8.74497292165268,1.00746206080426,5.2600346629961,SQUAT
1.22,0.0660303004178284,0.275905759283468,0.0294752913037549,5.12143451895399,2.17615566644586,8.06251517962673,0.0648842010018325,0.243805367102907,0.043465634510932,5.1283328564803,0.113414147675208,8.82681536886386,0.0947926176475504,-0.0108166761321352,0.0288946389710138,8.7088790796365,1.02804646297551,5.29457492763083,SQUAT
1.23,0.100210499249201,0.26226879473064,0.0272741992098881,5.29302678297513,2.21240279112783,7.9141799030612,0.0780017541084992,0.226806414118843,0.0467496504691866,5.16335370881722,-0.0612968256921586,8.66408067916609,0.0855689684448287,-0.005315127747049,0.0344914057438363,8.77016543324249,1.10101700343238,5.38560606763327,SQUAT
1.24,0.0785889435711313,0.272534365408326,0.030498669284565,5.33676476811469,2.39662008153777,7.95637491457872,0.104770240596945,0.210183363160949,0.0465852861802203,4.75534640737844,0.144843911077155,8.36508617283217,0.102690075500892,-0.0088029518246751,0.0364836870071314,8.67109409843611,1.17738905359369,5.44367627823046,SQUAT
1.25,0.0189395546771827,0.236975820331968,0.0362030662075485,5.08027977808629,2.40286147987693,8.29149909030709,0.125677971842946,0.198835842109334,0.0506378366402247,4.74884012103606,0.445789465908432,8.40118853990902,0.121667532976273,0.0054903408762414,0.0310379486077819,8.63198726987427,1.33479719918575,5.34315445335906,SQUAT
1.26,-0.0402390195306275,0.182140162291674,0.0269075240070921,5.1888505837707,1.77854229196996,8.26035634080061,0.110216042027977,0.180209313983149,0.0601588121169647,4.9371315776373,0.769074076391508,8.56146563785706,0.125691727150613,0.019665792207259,0.0288979883546106,8.68048939918204,1.40912671386899,5.4563560988424,SQUAT
1.27,-0.0506750961573026,0.175620151566268,0.0056853151616376,5.64577735875949,1.28305609292547,8.15890363486124,0.0862132390455413,0.17234454349586,0.0742210788953196,4.95510159764969,0.903605759756291,8.81368021927739,0.114883572717313,0.0177129179546078,0.0189205979588078,8.76714336228696,1.43961835799449,5.4498913489047,SQUAT
1.28,-0.0254783675144843,0.174191715549496,-0.0154595792618343,5.71314693966072,1.22283648847208,8.25478355981755,0.0613089968123708,0.147708709861217,0.0774555809644619,4.79980965664514,0.822446949187852,8.98180538554525,0.0790333063168299,-0.0020014398380198,0.0106301140291436,8.78060284599843,1.60059978790705,5.43503198714882,SQUAT
1.29,-0.0019099650809272,0.174658963334857,-0.0265071730498022,5.49616743350066,1.21663973494238,8.33507988964115,0.0627580589338398,0.135118236194379,0.0694836113951458,5.02959692803446,0.64077419657612,8.73177750226011,0.0692989918127058,0.0118929630293109,0.0208021041898171,8.64777203139133,1.73013918131736,5.53312681264792,SQUAT
1.3,0.0417673931025565,0.169282115556149,-0.0295117822544063,5.69512281350359,1.14666193710711,8.21377441796054,0.0890645526298423,0.134379670765236,0.0446857001858817,5.18664662552386,0.705730932263502,8.72998301444987,0.05033509824512,0.0187908952792886,0.0258774002411323,8.63300649952818,1.67611988670877,5.57924451789212,SQUAT
1.31,0.0583559016562531,0.171107418827512,-0.0014742132680477,5.46732533753442,1.35766027826356,8.28733311211015,0.0983582311152959,0.143041416796569,0.0173725816801312,5.24165945690091,1.07557105902255,8.82485684555661,0.0522544483875819,0.016539654247663,0.0348348086575153,8.63058195140934,1.52019958497557,5.57301007618148,SQUAT
1.32,0.0345426526832852,0.175299398641856,0.0077143970201576,5.37288346715404,1.43434647897888,8.30925437057877,0.0745026592191708,0.146219759594578,0.010749889609407,5.19619606672613,1.29345738792526,8.70346457374734,0.054154332759512,0.0037132778036198,0.0440115219982132,8.65177598337321,1.46684639559499,5.55495161078402,SQUAT
1.33,0.0065967714854703,0.159630027418752,0.0138603092858396,5.3456444997734,1.40055119805351,8.43153991601621,0.0260276972277638,0.15183960173723,0.0036371206826865,5.1651946685856,1.33507552415012,8.60966287714673,0.0353754832358759,-0.0062029939353717,0.0431551522509349,8.58678772324764,1.38016285848092,5.43084634770209,SQUAT
1.34,-0.0156415394498333,0.127954340132951,0.0156693192095237,5.19912362973605,1.480764985161,8.3431835407906,0.0006342764620288,0.144065188080844,-0.0009315859622474,5.14890499292935,1.30275133916832,8.58168064807576,0.0158529468077992,-0.0140072067983479,0.0424159441245124,8.6245759848774,1.26479025725147,5.47390680262154,SQUAT
1.35,-0.0198880383563577,0.110432511164251,0.0156257158081418,5.28603451751729,1.60655875759365,8.31680004723253,-0.0164866096510408,0.129855833792068,-0.0093432844519212,4.96502828291647,1.20784136552531,8.56039559905122,0.0184752674796427,-0.01657443599398,0.0268689137870495,8.63018481846662,1.29021576454642,5.36400425175134,SQUAT
1.36,-0.0121591726806107,0.104381608337347,0.0127775190262891,5.33730676800088,1.54007814830301,8.32074568131951,0.0083403762888384,0.0999570552715669,-0.0131473973334233,5.00717040977353,0.988538911056964,8.49883299172419,0.0196124649234899,-0.0149232316591666,0.0115576746186881,8.585433466687,1.45637647589822,5.31482402902222,SQUAT
1.37,-0.0045549534562012,0.107508372645384,0.0066721251680873,5.33791934644308,1.70671537078226,8.26386459543225,0.009676891382213,0.115403564905733,-0.014667272890525,5.03947805315271,0.634612781157793,8.80134093096403,0.0098767071623492,-0.0211635238185776,0.0029383319908873,8.53670345598104,1.49416588643903,5.34260685616721,SQUAT
1.38,-0.0201996231536118,0.0963147433330505,0.0009468076881469,5.37843827670835,1.81069655419645,8.44458185600606,0.0118344262573438,0.112333195671684,-0.0205801271735499,5.11132072853938,0.393966812090659,8.92680883128726,-0.0043502799083994,-0.0176874997220344,0.0033958640913882,8.49385011908298,1.53198145479341,5.54126059340861,SQUAT
1.39,-0.0428839460779972,0.102851452482258,-0.0134213643918692,5.46271237663275,1.65843751885337,8.30032586134911,0.0231992454579412,0.104788480013361,-0.0322909276381236,5.09856162444618,0.26115027697969,8.85872830292704,-0.0118511503104138,-0.0283108076595624,0.0052645714129203,8.44282430100764,1.5143537751243,5.59361232173886,SQUAT
1.4,-0.036032213076592,0.10954950093506,-0.0237519303288104,5.2763182023714,1.55042757376312,8.1675559703832,0.0275125242252021,0.114202432846966,-0.0292955060412254,4.96825241564201,0.25775472237345,8.882205784094,-0.0193247831343291,-0.0283562771023306,0.0069094327629277,8.44325066603181,1.53325931130808,5.56354899497949,SQUAT
1.41,-0.0286206595572848,0.097764918266902,-0.0428675898771983,5.11608166125005,1.40708936786946,8.2257320204799,0.0402695169131718,0.0987361366651143,-0.0263175602316448,4.98214991200698,0.342695843409033,9.07838435493009,-0.0309321442121012,-0.0178747880657763,0.010801266175894,8.4341151234551,1.51007264659592,5.61123711845974,SQUAT
1.42,-0.0286206595572848,0.097764918266902,-0.0428675898771983,5.11608166125005,1.40708936786946,8.2257320204799,0.0360402446140787,0.0826326620183714,-0.0162139672749216,5.09660067419002,0.417556470362278,8.7697171122406,-0.0311013179194612,-0.01730621184079,0.0196432951545987,8.39040724409959,1.46385250648269,5.38849170221328,SQUAT
1.43,-0.0104151176410245,0.0725019671326203,-0.0541064984821244,5.11635264908859,1.46402334357295,8.14362569056678,0.0289162922213913,0.0865844694650184,-0.0150147358454167,4.92024668810932,0.610823194440089,8.54249311796732,-0.026336399225682,-0.0082238338584862,0.0256696061222317,8.3234377308909,1.40866594100123,5.46007419836119,SQUAT
1.44,0.0033722462524308,0.0312975872866873,-0.0530952638062121,5.18404401966287,1.35674361769799,8.20578095335292,0.0144194073790132,0.082335615023886,-0.0089685061034837,4.71120494798696,0.671497197764646,8.54295879951587,-0.0255435575858635,-0.0054381533404368,0.0280339421329045,8.34007532448435,1.33822679383921,5.41047861588381,SQUAT
1.45,0.004231497050062,0.0254088300725868,-0.05188295264366,5.39623855899988,1.22841337403562,8.16266540446607,-0.0074693991891275,0.0666053266066891,-0.0014360500187838,4.7769869624193,0.580386978120484,8.32379634859785,-0.0245628098228457,-0.008898247830324,0.024261471642007,8.38028498611859,1.26942232740265,5.31809004275087,SQUAT
1.46,-0.0059204071556737,0.0285037844616161,-0.0415738801734844,5.49182653500246,1.04962647490328,8.33089522401605,0.0159159738645928,0.0660212128201875,-0.0002788991649656,4.86409298387647,0.530054609678151,8.43415757437962,-0.0371618689377476,-0.0045133073922226,0.0129540163956476,8.39905037051733,1.26044694549525,5.35566236749771,SQUAT
1.47,-0.0195996917827872,0.0295474891062146,-0.0428007606433102,5.53096617114677,1.19975224955561,8.40528038187446,0.0403624993413228,0.0456311286361954,-0.0006576423785111,4.90448981002575,0.597972952598256,8.60654223319017,-0.0398835064253341,0.0025825864882098,0.0097869632513793,8.4203590565093,1.29966286290339,5.25762127249028,SQUAT
1.48,-0.042977500546166,0.015238860277832,-0.034831491255035,5.5449854243838,0.870686057142963,8.42258453004637,0.0513696505260638,0.04113801319726,-0.0158270023086942,4.91439881871883,0.531517844867501,8.67423933793756,-0.0310071683308087,0.0211339180534763,-0.0029056079024113,8.39973456820162,1.3365287932483,5.41687018032691,SQUAT
1.49,-0.0283461962401348,0.0377240988842001,-0.033500735555262,5.53621432071762,0.874882778731578,8.35158044496084,0.071006478734237,0.0229079932505185,-0.0167561672722561,4.89727117878721,0.534307907150801,8.74724895371214,-0.0301951516240759,0.032558502789678,-0.0116004204560414,8.4071744774671,1.38339124221541,5.45417402803894,SQUAT
1.5,-0.0141072225500131,0.0400402772769711,-0.0266619075314396,5.53144054187394,0.797727342459267,8.41390852977844,0.065585218263638,0.0326650178685219,-0.0203043255009759,5.01195451831419,0.566173155682354,8.71456763073898,-0.0227798966189665,0.0353274993003418,-0.0075810324709357,8.34649106843158,1.37244767247003,5.45244088600015,SQUAT
1.51,-0.0022828108136431,0.0546401878663123,-0.0279713050784024,5.53278718462748,0.754697677415219,8.51936957757748,0.0478813002244611,0.0356576281604741,-0.0216159169541541,4.86409287256445,0.563383763382927,8.7365376962798,-0.0344006727917347,0.0295540933005347,-0.0007567311224789,8.30797283846301,1.38923517220583,5.49173428223012,SQUAT
1.52,0.0307801022944909,0.0320266131461313,-0.0204772999385172,5.44178185738251,0.707800585800444,8.33707680318394,0.0136457601680535,0.052188920015545,-0.0133657143286508,4.84377205872527,0.72910839325984,8.51820636929715,-0.053184049200107,0.0215987165078645,0.0092418292916616,8.23776456040374,1.34869408075005,5.42694444431408,SQUAT
1.53,0.048630679847231,0.0424610565857539,-0.0145028906507289,5.34052996397929,0.966547610069078,8.22634071370568,-0.01557038484853,0.0489809016657822,-0.018539167630907,4.65292892108134,0.85905961538372,8.48080800791865,-0.0626809677723186,0.0016363434705796,0.021564667342375,8.25445738907701,1.25722850636813,5.40691880151057,SQUAT
1.54,0.0419406507780418,0.0288317063655425,-0.0055929038142634,5.17045955909068,1.19474819785033,8.23338906263468,-0.0100809964135325,0.0200499516502453,-0.0131952022379509,4.422653802235,0.722057665131553,8.56370983786922,-0.0455625331431389,-0.0095038920333907,0.0154080012001961,8.22004823621003,1.14257638203028,5.32783281887922,SQUAT
1.55,0.0235015335609374,0.0043856119091394,-0.0031273454334436,5.32184554011484,1.51039410139015,8.1616445498305,0.008303269424485,-0.0097074975884121,-0.0071057315501423,4.59465923104702,0.538741207547763,8.65676845690024,-0.0319023054304459,-0.0114339332600561,0.0062101973564117,8.1503669991485,1.02696730069238,5.31195651079339,SQUAT
1.56,0.019116976472466,0.0163328749686433,0.0110877118942685,5.31749071575827,1.24609949795246,8.25777034389155,0.0336343925466758,-0.0089235005788988,-0.011213181017011,4.65001560160821,0.389335056969169,8.62714731709991,-0.0312647893883988,-0.0309320989277658,-0.0070607125082082,8.2205444326811,0.961404710144092,5.34630642574568,SQUAT
1.57,0.0145564110517747,0.0011861943714699,0.0294597993230479,5.06616305225812,1.24230420859997,8.28685078143868,0.0734854351970776,-0.0272096448349195,-0.0050977991164402,4.4338914210987,0.261710910386219,8.60151831050745,-0.0323704792845433,-0.0391720393252271,-0.0191089116792868,8.27694623280225,1.03846249793078,5.37706401171052,SQUAT
1.58,0.0270070505903392,-0.0118455060767127,0.0303357965250795,5.21727241349293,1.34703190318417,8.2648476944937,0.077086840298345,-0.0076023460848719,-0.0037882243513807,4.72861755080188,0.433497580752576,8.82429629468536,-0.0464487298450493,-0.0658642425658144,-0.0053902379672424,8.3483257787496,1.20614664455015,5.42842439017042,SQUAT
1.59,0.0294526644495905,0.0129260798489099,0.0294940013595471,5.19052579184729,1.48575025214875,8.44027980176404,0.0659897603764916,0.0030150962988069,-0.0038759063962831,4.5623253328596,0.685263483654674,8.97550427403497,-0.0925213487568984,-0.0974936408644614,0.0067369409220847,8.46580846319083,1.2301997674323,5.60800132112992,SQUAT
1.6,0.0191478418409968,0.0003286232407505,0.0283402635906135,4.87429458561415,1.71792761675245,8.4911820702302,0.0664336637355021,-0.0323829879132378,-0.0119323930338765,4.36713777411809,0.697374012108943,8.98516293477308,-0.0947897768276094,-0.123660790152784,0.0129326677289022,8.73311247580394,1.22592417511534,5.63178904054219,SQUAT
1.61,-0.0030346010427166,-0.0463936906411293,0.0171541706117401,4.87708472886447,1.89946823817748,8.68285049824678,0.0660429473135303,-0.0559170653927391,-0.0025264014827634,4.57632076208503,0.628175988505209,9.00398875403972,-0.0820133370946265,-0.134286650491519,0.0180941329822438,8.83044369341065,1.19281365430008,5.44683730808251,SQUAT
1.62,-0.0098372113254326,-0.106682243619768,0.0112040193547133,4.98365418934296,2.19965009700391,8.5120452647163,0.0337808448642268,-0.0771769863320329,0.0020242590010662,4.511894484012,0.593803312288611,9.00993826376353,-0.0820133370946265,-0.134286650491519,0.0180941329822438,8.83044369341065,1.19281365430008,5.44683730808251,SQUAT
1.63,-0.0075463892280512,-0.130081754868062,-0.0014403952263176,5.18770174971705,2.45890552041412,8.32805478872998,0.0343220374579589,-0.125149159469293,0.0025015708515788,4.35640622279903,0.295398450837508,8.93542555252924,-0.0721498835012802,-0.139178561090331,0.0180947614548576,8.89593021044518,1.12758250352925,5.6038697053487,SQUAT
1.64,-0.0127099724942714,-0.138650950878624,-0.0012398113263464,5.23790216706504,2.30982365888821,8.2910304009652,0.0673341915342752,-0.160406177741697,0.0122783481228772,4.43644913350062,0.207077874887936,8.67294041602821,-0.0506552807289642,-0.143981029956615,0.0139018287488458,9.03516485883507,1.0919124538604,5.41162703656885,SQUAT
1.65,-0.0092127814804013,-0.126683795480546,-0.0022552003803906,5.31432360382503,2.04197530035998,8.06300847138982,0.081656005121288,-0.16891325943648,0.0276245878067023,4.43407017535999,0.34696857260032,8.77536707977456,-0.0450963685805921,-0.13973047901241,0.0141803675613118,9.24307979344922,1.12605665924471,5.48177685992033,SQUAT
1.66,-0.0438121843647134,-0.137776805000649,-0.0091492437034069,5.3136774605182,1.7498167435519,8.43816994604753,0.121322624466073,-0.206181484320115,0.0284310219772884,4.39493444138195,0.711922303439368,8.86915557647322,-0.0618505982640023,-0.133415933152408,0.0163757193295649,9.45415399038121,1.1883495326626,5.44386045955592,SQUAT
1.67,-0.051685549621056,-0.19435912888618,-0.0118329698154155,5.31522422469635,1.27764133588431,8.50412486861017,0.144294640005393,-0.241041008508942,0.0246218363065301,4.83359838774613,1.00272876538104,8.95668340253898,-0.0474168524429977,-0.122272154877696,0.0233215704781161,9.59562632758862,1.11698216603584,5.4185388158998,SQUAT
1.68,-0.0264575838018271,-0.243356037287224,-0.0098925631730868,5.48891300482873,1.2236983338019,8.5485178579634,0.130674579182879,-0.256855723387562,0.0131562757454917,4.96907701438271,1.24076339829588,9.12163219603087,-0.0487101801435131,-0.135611111215702,0.0228538219603479,9.65177257872205,1.03060492616598,5.62345573350645,SQUAT
1.69,-0.0148087553963414,-0.272549088400907,0.0037550146147785,5.71662962579941,1.45289618616278,8.5151510104423,0.119326287501891,-0.291578663227508,0.0010032631444283,4.69161349907754,1.09142490966774,9.3265204380985,-0.0548528471257617,-0.133334757677138,0.0164849741703884,9.61502106315693,1.00118937940507,5.7246293602908,SQUAT
1.7,-0.0138686068104037,-0.29895466693014,0.0158859286409948,5.68616106060151,1.44028860035474,8.40524795299985,0.117989597258656,-0.348030509894098,-0.0042052225273913,4.61583093686184,1.1662879548087,9.29309549778908,-0.0559678546202917,-0.142305896052263,0.0096758492503021,9.6518990577643,0.967730393523741,5.94760436555523,SQUAT
1.71,0.0098735262505496,-0.287261257563519,0.0255863852968965,5.66993765374136,1.24428334910439,8.57545081743173,0.110891827588065,-0.390911283050777,-0.014479993833126,4.81090735599586,1.17069156373555,9.19552747656449,-0.0456028557907837,-0.144989411143535,0.0047787025092489,9.69567946148367,0.896671006431681,6.03283714916109,SQUAT
1.72,0.0167819145702466,-0.314722089477545,0.0463299740324563,5.44724119463974,1.17827445412133,8.75184830720372,0.0880520805207058,-0.40260986391844,-0.0222083134340303,4.86735066650451,1.25106475731074,9.17261629534687,-0.0488478338301567,-0.167374092343373,0.0007881168737063,9.81024212684216,0.983259385041625,5.88448177806669,SQUAT
1.73,0.0413779539294011,-0.359571784080008,0.0706717758144388,5.45311652384069,1.37674516035334,8.75013999486296,0.0606512892211999,-0.430426074228741,-0.0265450321458018,4.8845795945443,1.18578811456,9.29426725321138,-0.0383747191141968,-0.168181704846748,0.0067452139940435,9.94067208790432,1.15663833162866,5.8852185203156,SQUAT
1.74,0.0397196451162323,-0.428079477158635,0.0880776512262,5.56662776655707,1.56698661438489,8.774116585161,0.0354956408159124,-0.471764688989033,-0.0290271943853772,5.13798180776149,1.17033347958421,9.19857831687196,-0.039184196918592,-0.173905274508219,0.0128283139828104,10.0787490224074,1.29662634882617,5.85995795163544,SQUAT
1.75,0.0321632376429816,-0.471372107717329,0.106558085310496,5.75453184749414,1.71064602912005,8.57749385183496,0.0170261301539734,-0.505311472534028,-0.0304583270076788,5.32891861758824,1.01371141899643,8.96911836051382,-0.03502276476546,-0.176816051870532,0.0187375573307934,10.2321089375922,1.39565346601132,5.86736940419068,SQUAT
1.76,0.0182298046747244,-0.49971933094338,0.119157323118928,5.77831746245435,1.69571054295611,8.57531075363213,0.0172095224139344,-0.52540714217454,-0.0224185814835695,5.34164502870553,0.895445530934808,8.85855297340062,-0.0507209923909804,-0.177415419515384,0.01681789675623,10.2736501760292,1.41161949634556,5.94961967502715,SQUAT
1.77,0.0262474240301956,-0.529576250508978,0.122982176353298,5.82915035576762,1.74653659316488,8.45803521930347,0.032776053925956,-0.588067546080842,-0.0206388372950715,5.2668563111898,0.88917394356484,8.95791332463933,-0.0713380625090211,-0.161913344514537,0.0178669348845065,10.3535608701547,1.48926378322383,6.05584931510349,SQUAT
1.78,0.0440501916423828,-0.564676347261559,0.128387277496925,5.97911200923533,1.81049586139712,8.39218759597039,0.0251441028413139,-0.655263814301161,-0.0092687178995121,5.24223235573126,0.851678317738451,9.01084786034299,-0.0784087994101426,-0.17022726115802,0.015101350582882,10.3920439258429,1.57025780348826,6.1687167373116,SQUAT
1.79,0.0449635285776047,-0.599666539087544,0.123865818027862,6.17806703472781,2.04277255464139,8.37759787205576,0.0168975251474695,-0.723513808417728,-0.0091352307739009,5.35997457966215,0.78532003153345,9.10314937419954,-0.0552567568084905,-0.175211997321819,0.0180543895766449,10.4568601665487,1.66633121581793,5.96475973043177,SQUAT
1.8,0.0146844359778762,-0.662572306465215,0.117051818010871,6.31188767322315,1.98350160146332,8.30612135103166,-0.0101413512776517,-0.748584190699471,-0.0037044093989879,5.82495930773152,0.63646755926265,9.01159802647324,-0.014774223438097,-0.185100851613841,0.0189858930893595,10.4960333347782,1.53038967575551,5.84443346547329,SQUAT
1.81,-0.0159678173850552,-0.71084816022711,0.111482348705362,6.3751637176867,1.61425896389272,8.23603923256983,-0.0051917551937696,-0.79887325239808,-0.0156531497516599,5.93188435042655,0.484933235802142,8.8680891277877,-0.0048400854659254,-0.184647551706872,0.0301990374100042,10.4200173546299,1.42605671001027,5.88533953618039,SQUAT
1.82,-0.0172544705323874,-0.744475561329523,0.110323690024968,6.22414016895567,1.19042769872936,8.30087217019182,0.006609482824361,-0.840587576848644,-0.0248005110983673,6.15526638909426,0.636925723369292,8.64372126520506,-0.019596354503215,-0.207868332019236,0.0358835387027854,10.3884716818892,1.37131597904075,5.89521658864131,SQUAT
1.83,0.0071509330930527,-0.792025435502945,0.117410270154961,6.035931069236,0.99522392422839,8.38066522338393,0.0244363014390942,-0.875695788373166,-0.0291387319256758,6.20334549651713,1.03404863274105,8.68904238753763,-0.0421945773846279,-0.222785957321845,0.0480572907209711,10.3149806696774,1.2935206431366,5.82582857386519,SQUAT
1.84,0.023088481136303,-0.842706853096941,0.133934476952831,6.06820987378606,1.06240564572273,8.26820345476432,0.0284289195204397,-0.924556155256785,-0.0323966150347817,6.20399195075854,1.4147182408841,8.61957539517282,-0.0522852690985168,-0.24621784029117,0.0636506844940995,10.2688413220645,1.17396262439862,5.76625201292632,SQUAT
1.85,0.0443324680015417,-0.890757967805401,0.16200188273869,6.13148516620561,1.21169034355319,8.13676631548205,0.0039032928489468,-0.963824805841543,-0.0340381056148307,6.23729511723507,1.60668198882206,8.52081181654626,-0.0618400284497942,-0.271385623029161,0.0651239909796034,10.2777425605662,1.18050770231657,5.60120573554077,SQUAT
1.86,0.0309669264990351,-0.897037929099071,0.19364154742995,6.37486187348787,1.12934808439374,8.29251169915755,-0.0264374300814398,-1.0168434493415,-0.0469894165205432,6.25690892250731,1.72401836171411,8.53078593563921,-0.0675027672668802,-0.275477599166451,0.0652449946477163,10.2272635394477,1.25266181939023,5.38135040062061,SQUAT
1.87,-0.0063438802960475,-0.930905703915309,0.223339072741929,6.59070024793624,0.711803199132654,8.30112736261282,-0.0680879950017098,-1.05279259531498,-0.065391800447002,6.33817675356079,1.74538934061086,8.27087054405741,-0.0852952409482348,-0.284989629363542,0.0601789674286919,10.0833719915273,1.34878882392914,5.36213482494519,SQUAT
1.88,0.020937507720992,-0.960154530564677,0.257247487205011,6.72254500775639,0.2091447167524,8.00801529712805,-0.0917897755393701,-1.09809930171742,-0.0798407100069541,6.41378032712014,1.77821260213714,8.17142006664459,-0.103399184799025,-0.298013053403217,0.0563584265497858,10.052703054009,1.46722273140089,5.48090148521796,SQUAT
1.89,0.0515762621407435,-0.959020374746598,0.286071741002875,6.76781403756173,0.169599329953932,7.91490140029609,-0.12608786203602,-1.13667377657107,-0.100281271570965,6.36428542355745,1.78070284950437,8.23406827437073,-0.138470126306631,-0.318327693809757,0.0408600576057652,10.0570443142275,1.47553541727511,5.44629183884149,SQUAT
1.9,0.082359938048563,-0.981113345759483,0.31239078294884,6.82107335464013,0.41763082343114,7.9491489652198,-0.134415114168364,-1.1933281529417,-0.116995777569493,6.24611522172643,1.4042539459606,8.06196875266258,-0.173014758461262,-0.335432308193251,0.0383404128742436,10.0700786435048,1.50511196471007,5.36113650899141,SQUAT
1.91,0.10909918629997,-1.02524285871565,0.333945624175704,6.84004323729179,0.766906211454799,7.63644009148334,-0.11272324386816,-1.25013854934201,-0.132220623650246,6.27174851360085,1.05363327437886,7.93328439607279,-0.182495507514242,-0.345577632502391,0.0335034644680965,10.0474584802473,1.49643808238008,5.33707650506049,SQUAT
1.92,0.104810168729907,-1.05288683768531,0.338881302305732,6.93914107909998,1.19648552905905,7.4159236736409,-0.0953085162266278,-1.27334876548351,-0.147577033959973,6.29992803522442,0.877476596189917,7.84007746941011,-0.161008853352713,-0.362950106691807,0.030735987394316,10.0129287776751,1.40541968682026,5.13886322565788,SQUAT_UP
1.93,0.0802426173622679,-1.08480959526793,0.341540018332764,6.90504982098349,1.60295178702693,7.37719948165074,-0.117925379717341,-1.30749296721294,-0.163103987845603,6.37785366551554,0.580083449666649,7.85458275630662,-0.132605657126436,-0.390849705406929,0.027913197554392,9.93368645844845,1.30385091100911,5.24048118777274,SQUAT_UP
1.94,0.0707483732759638,-1.13000698785603,0.343792724077112,6.96130253245543,1.97635736619103,7.16742662559628,-0.176531500150509,-1.33961872685587,-0.174742436291302,6.54877434624915,0.175116721207728,7.59118523787228,-0.132553298546814,-0.414625688951157,0.011011328785523,9.94301750590385,1.24819132706267,5.16689710033442,SQUAT_UP
1.95,0.0621981234373062,-1.16136345474237,0.345568649227001,7.13899950332357,2.09581340433629,6.93480736847303,-0.189305332883553,-1.37825428639886,-0.172437497351186,6.72047277459855,0.0579596013079284,7.45425541270653,-0.136305449343481,-0.442748337314772,0.0015597241492546,10.0139891185411,1.20192725139488,4.95766348933773,SQUAT_UP
1.96,0.0464437014123141,-1.18206418163311,0.349565281672698,7.34000297572886,1.90011068244653,6.81089314405317,-0.161581785897988,-1.41224233224458,-0.167352893416421,6.99764047058317,-0.0740235129448989,7.43586673751623,-0.122390297086086,-0.454382337867288,-0.0019544511182932,10.0029658641623,1.27785059988983,4.85060752777284,SQUAT_UP
1.97,0.0405720064680561,-1.18217025918261,0.350811677685025,7.49807219239103,1.38408459290316,6.55997336082097,-0.136704390476396,-1.44900799181217,-0.162152457268383,7.18613369963755,-0.0940935707173308,7.14926790207576,-0.12117928888708,-0.470108704800912,-0.005067453571995,9.94970585138633,1.23857488878549,4.87712149608775,SQUAT_UP
1.98,0.0400407424524405,-1.18887980091959,0.347728956510361,7.65468962531051,1.05872291739639,6.55101465935587,-0.124555956133838,-1.46914686939998,-0.140059945872197,7.40406411735407,0.148980919774113,6.86525226955035,-0.141302784915062,-0.480930918141215,-0.0028956655911432,9.9082391036208,1.13254138487916,4.71628522318244,SQUAT_UP
1.99,0.0577835664480517,-1.20513475887696,0.335127410535156,7.76403829826092,0.991853127824122,6.55749238593599,-0.116572432058693,-1.47400300301294,-0.112627369808405,7.50945642371849,0.187194578148221,6.71596697506648,-0.158377169351603,-0.493109923657929,-0.0019679822365172,9.82493929310513,1.03024968046389,4.56380480974538,SQUAT_UP
2.0,0.0681361543099188,-1.23672895735455,0.339214815227558,7.81323640465514,1.02977672289245,6.50413484666062,-0.0954108426488761,-1.52694378454882,-0.0881221164486967,7.45720727756761,0.470866457234123,6.62369499041889,-0.150611261971115,-0.508521329853191,0.006852401308766,9.66277620522407,0.915002491591928,4.45602878777044,SQUAT_UP
2.01,0.0361640318109604,-1.27754792016164,0.341599806498263,7.87119910739904,1.13344165864582,6.37270785068022,-0.0976600157752008,-1.60975398874631,-0.0675338306371933,7.18137489632079,0.601821334983647,6.48541578865621,-0.137695536781038,-0.53029951564013,0.0175450150133199,9.45321563743536,0.957599773364302,4.25871338667748,SQUAT_UP
2.02,0.0004599699726277,-1.33089388464127,0.351614312318111,7.83146364846776,1.08929434658175,6.22842073539181,-0.100860612413614,-1.63436782470404,-0.0506757249187625,7.38419677877933,0.512854967382746,6.49057186081345,-0.121046261446203,-0.554257781950823,0.0304068348815288,9.15041991168132,0.962930656938907,4.17943127691522,SQUAT_UP
2.03,0.0009577480176466,-1.33558078467499,0.352778483579524,7.87660551571597,0.960675385328553,5.92049114448275,-0.118210407381876,-1.52916881497353,-0.0513582230666704,7.49150321749309,0.535530738857373,6.23366068604925,-0.103137200990106,-0.593148226041087,0.032786881946846,8.97504649481308,0.801372067806883,4.03520372310047,SQUAT_UP
2.04,0.0364074149201411,-1.31328428806229,0.385006866728823,7.76571445031748,1.24209346251108,5.77080907595205,-0.127891088214327,-1.50382796758895,-0.0654097933644551,7.37368045386843,0.308189312712628,6.15354853499307,-0.0931167396717474,-0.626713398508677,0.0258181275173937,8.85448141826115,0.749183850271624,3.94567684527434,SQUAT_UP
2.05,0.040363143134115,-1.29653455454765,0.410617671284328,7.77129687356895,1.56663310314753,5.81957029226108,-0.122437507057703,-1.49997352200168,-0.0735342207369153,7.20633270079856,0.108516900284302,6.14739656850578,-0.0999348705819672,-0.663418728217964,0.0156060772758039,8.81602504693203,0.789515459473827,3.735542741456,SQUAT_UP
2.06,0.006340881948006,-1.30201938213976,0.429634048629109,7.7583076267675,1.5915160436461,5.48776816835053,-0.114906013368064,-1.49108284067314,-0.0794044779716623,7.48027040540837,0.221820366585336,5.79165358773916,-0.0916141276988185,-0.676369922451569,0.0182513620906292,8.78679694336879,0.808792577510353,3.68408966270756,SQUAT_UP
2.07,-0.0196899656311661,-1.3044028217412,0.431225392868407,7.80342260174818,1.38249333877363,5.28622835806377,-0.0999970733434608,-1.49524249607291,-0.0690045453444338,7.43423835177363,0.236233231877066,5.84261757634191,-0.0765205724034488,-0.692876541422146,0.0216033222132331,8.79252402095665,0.834892320420465,3.54080037542933,SQUAT_UP
2.08,-0.0339985863843178,-1.31078514914954,0.421142586130562,7.88744315566187,0.989332394028226,5.19963687616105,-0.0794065940176936,-1.53804647805095,-0.0658850963863221,7.71980321048282,0.319702283147936,5.46139028853949,-0.0581083950852252,-0.705972521242285,0.0259527080477973,8.77536942335903,0.824180443114616,3.43757401390719,SQUAT_UP
2.09,-0.0083642169714889,-1.3206148505512,0.404012270311037,7.85813754764161,0.693943617660261,5.10105309215834,-0.102136904685815,-1.53899604204299,-0.0648280912526907,7.96493166856213,0.609146664105865,5.32576909968379,-0.0519279528782378,-0.717345054998719,0.0250662548044554,8.80771552531969,0.823885418134857,3.19629664698031,SQUAT_UP
2.1,0.0360168465480319,-1.32956837571823,0.394316393189693,7.80589729662922,0.551095117881002,5.00069894295143,-0.106433449754552,-1.55868458804232,-0.065332478800516,8.04163856772594,0.989160584684955,5.21642903996506,-0.0454189138001481,-0.738758117881803,0.0334872328817064,8.85287418965451,0.869820611749277,2.98806628611846,SQUAT_UP
2.11,0.0814516474098649,-1.31801706808733,0.369973404531046,7.89714065643421,0.508647577212576,4.99322005193692,-0.090167323626164,-1.64818746683165,-0.0792267078867699,8.05078616592826,1.18591377321828,5.18751999673731,-0.0200398785661054,-0.756338846710311,0.045343879186435,8.77796999499065,0.939154926819573,2.86767440414027,SQUAT_UP
2.12,0.119807410244302,-1.3300153940266,0.354218442524783,8.01896467372161,0.428105474306291,5.1677723337617,-0.103585376977772,-1.70062764879596,-0.0916465302572393,8.26257919883175,1.24353328832337,5.11152222274786,0.0060727947387628,-0.779430193148823,0.0566523628088106,8.57356408344184,0.842572377016823,2.81990678217022,SQUAT_UP
2.13,0.192816823318249,-1.32047790669576,0.353896344300953,8.14113319663713,0.305301639101019,4.99241122339836,-0.136227398421131,-1.749247051332,-0.102242651078176,8.25726205889807,1.32419772691683,4.78109762710957,0.0134235534397293,-0.808491741025697,0.068064515191129,8.3474355678799,0.819639613770729,2.77113082339546,SQUAT_UP
2.14,0.264758017963253,-1.35450416072998,0.369640305730277,8.03500743924451,0.12824685204383,4.71979659422416,-0.208628856208149,-1.73991362944668,-0.108752872613927,8.34389699781951,1.47131396429458,4.55076940055607,0.0089611248905187,-0.829799227394933,0.080603738670504,8.19192101788219,0.817701591505582,2.74819565415429,SQUAT_UP
2.15,0.315029945446158,-1.41954126444744,0.395780442542497,8.05401080764824,0.335131504356175,4.50670321498772,-0.285169494058044,-1.6782243450001,-0.107390573596524,8.36705147203839,1.50846578000955,4.12029862924644,-0.0018870075989806,-0.839335730995527,0.0954978844936497,8.05638095183856,0.855842573010213,2.5050135594923,SQUAT_UP
2.16,0.397307109653373,-1.43402595874513,0.410114955846976,8.1672307956523,0.513500924135038,4.30491553435524,-0.362918395674452,-1.62653000459063,-0.102219110318486,8.20432369926699,1.34326646605792,3.87919630380412,-0.0086016755793487,-0.861312066268178,0.109678935019014,7.93952392405345,0.795561582688388,2.31392478607705,SQUAT_UP
2.17,0.43250097015367,-1.45310332683776,0.417471936454374,8.16370567451733,0.544910643486346,4.14456175502376,-0.422999639243758,-1.61379439143154,-0.0988655109375496,8.24918132696173,1.24122811517399,3.8295670222604,-0.0124715331215634,-0.863013415528891,0.116170291646886,7.88399527539352,0.73104894997273,2.21917023179407,SQUAT_UP
2.18,0.447418673416514,-1.45998545107156,0.426632025878901,8.338728854212,0.826494268719458,4.00988469236768,-0.473596179730161,-1.59197074061229,-0.111641143005882,8.36167013903745,0.988633677923443,3.57328841071421,-0.0164666759157425,-0.863718934162403,0.114094980061128,7.86173243101136,0.790723669617932,2.22034594934165,SQUAT_UP
2.19,0.44552331087505,-1.47728363721959,0.44218202455464,8.45439723607926,1.06851696673045,3.75644989774507,-0.526963401608054,-1.57112887751523,-0.0905711127998495,8.41620615432224,0.311512446701422,3.83711438539885,-0.0287993302259535,-0.854532194339028,0.108598352832214,7.84674858468034,0.846538054609482,2.4017315990019,SQUAT_UP
2.2,0.387522555131303,-1.51654491500675,0.460888283612808,8.53047606302619,1.20059083727147,3.6993283682955,-0.509977638441419,-1.55880625993087,-0.0844397389747047,8.64315658239142,-0.012273257440763,3.93506377825813,-0.0391666178324787,-0.864238502801019,0.0909820125812251,7.83648577430307,0.779811002692144,2.27139143050629,SQUAT_UP
2.21,0.295416663009812,-1.54814821472829,0.46027163117962,8.62614780571495,1.31776394081103,3.49453190562667,-0.508435645074768,-1.53042644253179,-0.0832880069876132,8.74594470942293,-0.117967519705252,3.58222558531794,-0.0166500971917918,-0.884124200129008,0.0726342192826677,7.913780059052,0.699767220522481,1.9852086729723,SQUAT_UP
2.22,0.247849569071849,-1.53673942744737,0.463786118593697,8.83353127985174,1.15922063197837,3.54904130332706,-0.505642216766596,-1.50092740607864,-0.0903195288107476,8.87935646694926,-0.278156108271913,3.43107141664944,0.0028677290871898,-0.89011157269048,0.0518785522836586,7.9076683308881,0.752530433248247,2.06434889273347,SQUAT_UP
2.23,0.225448063403204,-1.49979638007084,0.483047658428834,8.85042350901777,0.743705323214672,3.62680678893366,-0.470609959192887,-1.51941864710917,-0.121522923693131,8.68291441678066,-0.0390259825292745,3.17173757280501,0.0203420750740828,-0.873961265377089,0.0277607380874016,7.79173278942576,0.710544417379596,2.23643279175252,SQUAT_UP
2.24,0.202900088411388,-1.49287564444416,0.522308461128235,9.00584903159331,0.338464869825989,3.42674917173013,-0.40521869227535,-1.57668586014498,-0.17421284793489,8.73557153743512,0.0924556798973775,2.96500860322475,0.025042289165634,-0.886834511309492,0.0134222380799293,7.78666846292335,0.726301443600283,2.21331246074688,SQUAT_UP
2.25,0.22125177026825,-1.48614944650904,0.548827433378652,8.94497433651775,0.0497157264635732,3.0499075806666,-0.382240229606389,-1.59371588269396,-0.222126831096859,8.58473573942351,0.347379579761713,2.96288754420298,0.0327748467045302,-0.902144344561997,0.0078973387362434,7.88657531941692,0.734316466660551,1.93612094568384,SQUAT_UP
2.26,0.24821673065066,-1.47941432029573,0.552164832021234,8.84816036412526,-0.0383053411623336,2.91139134441432,-0.401432128016456,-1.6058639342014,-0.259691779306712,8.54128324419752,0.534451251621842,2.65259524589767,0.0481311149926826,-0.894604946279838,0.0120533479739999,7.81177479065949,0.699560963584758,1.84317039159368,SQUAT_UP
2.27,0.24155845824655,-1.49491346882571,0.54096547960791,8.75397591309225,0.244467676101279,2.763032705244,-0.439482321042451,-1.5809541287516,-0.263106806731486,8.56667321267472,0.333122327800161,2.30193430253124,0.0334875954876128,-0.877151388613566,0.0230597278271083,7.7808627179934,0.715121538879088,2.03976385139566,SQUAT_UP
2.28,0.260324780197577,-1.50735114441438,0.528959458277683,8.75567805085025,0.495128727780576,2.61519266326867,-0.519721936992639,-1.5519641296263,-0.226608267537809,8.83478900308753,0.143144004135401,2.19215372532072,0.0171587230553431,-0.863673590805954,0.0300767398262929,7.82469549091584,0.641036424506073,1.9470597253694,SQUAT_UP
2.29,0.258293185151149,-1.52848422541681,0.527134622981169,8.78165180671407,0.610406257326344,2.31642500956316,-0.547572807358954,-1.52869941119192,-0.200394555264235,9.04681766515793,0.35243789300669,1.95714306317384,0.0043831552853907,-0.832568045231703,0.0486549781970248,7.9464030234215,0.743695218245724,1.7967111345214,SQUAT_UP
2.3,0.235292894936577,-1.54922361529941,0.53873758711514,8.80682719613675,0.927462711815209,1.9489289527779,-0.533220299592684,-1.48976082879247,-0.200501589431717,9.10592444121613,0.378673120054465,1.72528784749008,0.0043831552853907,-0.832568045231703,0.0486549781970248,7.9464030234215,0.743695218245724,1.7967111345214,SQUAT_UP
2.31,0.244931517710471,-1.56452576223528,0.527154077956713,8.87238447715752,1.12971822246082,1.57542860540676,-0.572072911768143,-1.472090880068,-0.217523404959082,8.97403605923361,0.0873755712549329,1.65767945800691,0.0043831552853907,-0.832568045231703,0.0486549781970248,7.9464030234215,0.743695218245724,1.7967111345214,SQUAT_UP
2.32,0.235013670745232,-1.54813475438487,0.510518758218248,8.98216558967734,1.20750088761164,1.47549949214306,-0.585932139236855,-1.47388614758526,-0.238270739993442,9.03997985892135,-0.119951588977979,1.29324622491091,0.0324230844344612,-0.810005810845169,0.0493906569067926,7.92358347402934,0.850867075018646,1.48249598832712,SQUAT_UP
2.33,0.162740483428259,-1.54875605516915,0.504833295047665,9.06579343977944,1.19128515317597,1.51419413644085,-0.526086849447254,-1.43286810034198,-0.247471212546792,9.26150843481704,0.0543437513514719,1.40165480328857,0.0724679355752167,-0.810784762932236,0.0344161436226259,7.93679876823342,0.817598474070842,1.36648267190219,SQUAT_UP
2.34,0.0775018803209914,-1.55005203450761,0.486242127565586,9.23617160629378,1.09090969677605,1.56982384712594,-0.427753084105395,-1.43725238888063,-0.264419280205872,9.2304451098562,0.238187600710697,1.39408064691683,0.103953827497297,-0.785828863917753,0.0119337299653558,8.04250364468605,0.710896332282565,1.50667673184862,SQUAT_UP
2.35,-0.03689985024232,-1.5634066918717,0.493944011799039,9.3251768892926,1.05998236877077,1.75993393506547,-0.373046959448571,-1.47161736240614,-0.280904749392196,9.1521324733148,0.270292779407023,1.3486447395266,0.117385211042502,-0.761970805826876,-0.0083639727461891,8.05967104584685,0.56900205191604,1.46004124900568,SQUAT_UP
2.36,-0.106137255714623,-1.53026890533374,0.474293892184095,9.35783849726186,0.863474975963293,1.71137637230416,-0.338626197420573,-1.4675865315734,-0.305319761696287,9.24164524332718,0.352387982416413,1.63035475886721,0.13296389178398,-0.73643036271962,-0.0199932309608189,8.08396359029571,0.520896323416946,1.34818034564055,SQUAT_UP
2.37,-0.155959262233696,-1.46321885831236,0.461177056647196,9.29063369556943,0.646613331415099,1.86276078327211,-0.309759897509482,-1.45901920696603,-0.345549492197893,8.98075546850831,0.800020414623287,1.51204813920636,0.156638932194605,-0.691526452805524,-0.0233678391527734,8.01098730090566,0.499294307856325,1.35225811495371,SQUAT_UP
2.38,-0.139187559969752,-1.43992595014865,0.45067485282115,9.32984350936684,0.216089613192216,1.88410138756823,-0.284434172259755,-1.48102453121665,-0.395625335526004,9.03072209235017,0.730167258301443,1.52237662837223,0.149367016972287,-0.665370586249419,-0.0191016858625565,7.97176668097168,0.471376320519049,1.36369469088529,SQUAT_UP
2.39,-0.0942997691407119,-1.42107838532773,0.447365580333309,9.16751867191488,-0.390875443990664,1.71298329024507,-0.427426393559496,-1.44505029122564,-0.414871948112301,9.16790268017902,0.324745300457973,1.23633090735579,0.136124937990842,-0.643448245398674,-0.0068069655781074,8.01067286631166,0.493554303391366,1.21674976780526,SQUAT_UP
2.4,-0.0187097562109623,-1.42945550314666,0.457646896932215,9.0631661860012,-0.664127044765042,1.58578056492097,-0.524568235767867,-1.41955575735802,-0.424071110703047,9.38901741330857,0.313856219168219,0.723031710274491,0.112639008940729,-0.624712717764787,0.0048445862360252,7.99211320206835,0.566588579241358,1.21586002737243,SQUAT_UP
2.41,-0.0792283333891809,-1.48359383864754,0.478998001944741,9.04800757223397,-0.846182477089222,1.35963971188663,-0.40143407105993,-1.44691730930728,-0.436822295323014,9.35508198148251,0.403784506169434,1.12227090405995,0.0997142549055239,-0.618606049598991,0.0196090076160537,8.00559934043222,0.777853940557713,1.15308400970307,SQUAT_UP
2.42,-0.0462947342488963,-1.41492342930663,0.482490579359667,8.97212319852272,-0.640179990205561,1.14644048273377,-0.325186494132619,-1.38776269490327,-0.436729026612368,9.28006517663433,0.145198429757425,1.0927638541673,0.0938332616756201,-0.61163116522543,0.0467248885877427,8.08132737641155,0.882532334895747,1.16377305994107,SQUAT_UP
2.43,0.0814147522829755,-1.37070575449813,0.475148295750328,9.07782854399142,-0.542169385131877,1.17778712471076,-0.277979687639352,-1.31934585414983,-0.415441229305786,9.20450952183112,0.0793223210704769,1.37330096531664,0.0864720070063569,-0.578937821418626,0.0594382719940674,8.03623366499819,0.814171363096342,1.18078696316737,SQUAT_UP
2.44,0.105657825496694,-1.32484054668627,0.469206429286192,9.4901703116885,-0.725682832182873,1.53551993546006,-0.197355584789877,-1.27132662685725,-0.40367597265957,9.10879246455349,0.190691447773853,1.86353879208242,0.0722004778535898,-0.556276997614259,0.0696545553494064,8.0497177501022,0.784849339964833,0.962083939346639,SQUAT_UP
2.45,0.0984707245944264,-1.26011608290498,0.453194586779356,9.62891001319308,-0.749679454108093,1.41431371322829,-0.126013966980081,-1.27522276833996,-0.391230689253698,9.1420933101643,0.54293499769593,1.75715774761732,0.0704577045592049,-0.533091620582144,0.0749199135519207,8.16465371411981,0.824147969737899,1.00103099660442,SQUAT_UP
2.46,0.111663300954905,-1.20595809017245,0.416432049867154,9.53601130112672,-0.651498999787265,1.43181263121426,-0.125253188700878,-1.26383519973618,-0.349921191542287,9.36406554304497,0.735197717244593,2.05456551441868,0.0478964364437028,-0.487853876973125,0.0650275540657377,8.2580168687864,0.846288375280959,1.38229538304296,SQUAT_UP
2.47,0.098712176539597,-1.14510465198377,0.371352583124428,9.57411023450611,-0.655867829627773,1.59032542231992,-0.176730708995256,-1.20547801880512,-0.294668346706611,9.75909627677178,1.20840013926707,2.03488188287704,0.0180478502894317,-0.456224737699869,0.0595007085691137,8.3484998060346,0.898614339889252,1.30187280535641,SQUAT_UP
2.48,0.165530541888492,-1.08319485568436,0.325721299903222,9.32775959866869,-0.695022509326231,1.44588274345671,-0.202492190011665,-1.15411691593167,-0.234006685673809,9.46652521999611,1.84562335494958,1.87886655667167,0.0196606110467171,-0.449975274584974,0.0551445756309858,8.4267951311969,0.856743003367062,1.07012342611017,SQUAT_UP
2.49,0.280541232063985,-1.05975978578161,0.275993849380881,9.45682437071746,-1.12189108065431,1.460270129677,-0.303505116709471,-1.19119008731773,-0.204936575109313,9.12181162072166,1.49726019363825,1.712043006179,-0.0016759513674986,-0.408910448841666,0.0465799144821163,8.49419757953903,0.80671829196923,1.01027386532895,SQUAT_UP
2.5,0.342019675365775,-1.03956386070351,0.243082060032543,9.69925741671337,-1.16248861137834,1.47123554247602,-0.447523982044126,-1.2286847303186,-0.220531366239095,9.64484603081502,0.775228905986077,1.32643811417477,-0.0235995396504558,-0.369064011818232,0.0326839523020922,8.59257150058025,0.687008430872158,1.14727182767708,SQUAT_UP
2.51,0.391113413544073,-1.0460490219098,0.204359943022513,9.70778730152827,-1.03525735347126,1.45645450687637,-0.397821798810022,-1.22780028338305,-0.218920861410205,9.58479198851819,0.824136199430782,0.86766084392878,-0.0207287417317015,-0.366951846569643,0.0279649796170976,8.70043077386751,0.640169730311495,0.922341579629815,SQUAT_UP
2.52,0.390502335896003,-1.05881034169976,0.193311246280219,9.516849388346,-0.923114934798511,1.30489803461436,-0.34152809330392,-1.2084166483522,-0.199423715370628,9.38048913849569,0.527953662493139,0.341291085059516,-0.0009008421076776,-0.381449390631533,0.0418008798120142,8.89309400853294,0.705393958801798,0.900740506617855,SQUAT_UP
2.53,0.369543955049308,-1.0481459485416,0.200375799781938,9.57903126440885,-0.639314946962478,0.869892476328426,-0.261084969809606,-1.20591000801268,-0.20949851932136,9.45030682232052,0.0736865837213267,0.463410915399727,0.0040302364349214,-0.365503667327263,0.054869140750904,9.0590345113372,0.721944566641589,0.874365880598913,SQUAT_UP
2.54,0.368081851723789,-0.99688729242658,0.217370337286268,9.79243579539634,-0.341973356785387,0.595226837858472,-0.106066281803489,-1.14920495312118,-0.23130723405592,9.76260254862716,0.266990759213501,0.374460448553952,-0.0044294907209371,-0.335742176221043,0.0752143718201929,9.14229273844384,0.680024390501901,0.892296454635242,SQUAT_UP
2.55,0.23243747671392,-0.900795858668676,0.240930358982634,9.69706786021633,-0.23912186133428,0.570886237268229,0.0520706546366521,-1.03538858674825,-0.231442733904644,9.71236575500517,1.14168656681863,0.29002321199859,-0.02441016194939,-0.288817788749969,0.0770050194451963,9.10597606756002,0.669882170065636,1.05816818681274,SQUAT_UP
2.56,0.102680958253837,-0.806898239847075,0.261037124539916,9.46516858885995,-0.129123623980062,0.0874346668658935,0.161327560336111,-0.92209775985517,-0.232031248981688,9.4492761807698,1.91419585035704,0.412164331030106,-0.0239465815878473,-0.274963499073228,0.0690315156604799,9.09323718833748,0.678352571210074,1.13081310835645,SQUAT_UP
2.57,0.0087614505759865,-0.765625904757561,0.26748019955887,9.26427750169286,-0.146780296658418,0.163963723468122,0.164074188424028,-0.856193934528814,-0.22645368409006,9.0852354079635,2.3779463528321,0.794656425963519,-0.0155277359222995,-0.275344506176616,0.0484569853954474,9.08942436027529,0.637742392185333,1.12843296560046,SQUAT_UP
2.58,-0.103640661408434,-0.725041340290891,0.286299165105228,9.52605997928239,-0.4322088247374,0.427181511560167,0.0796020656881898,-0.846871814352703,-0.231071192690705,9.31342908679948,2.53296216509332,1.05839671110431,-0.0120189318539428,-0.258907763040284,0.0162700850995369,9.04945759869439,0.601422891690983,1.2238989991265,SQUAT_UP
2.59,-0.185302593628808,-0.696758222716032,0.303377777164506,9.87801208051083,-0.586637915594052,0.155451845546657,-0.0431583281994063,-0.804132740977222,-0.224880749730108,9.81953147572393,2.37409321796089,1.28318169524336,-0.0075139224323776,-0.253504176726314,-0.0128310285192082,9.08563567261268,0.504013173341284,1.24536158603859,SQUAT_UP
2.6,-0.229475844968395,-0.670030150869251,0.312426251249742,10.0978294710588,-0.611159777191464,0.0371995129625708,-0.139855833248755,-0.731233788228396,-0.227232893162052,10.1040042204256,2.08884509416929,1.01349266762051,0.0083546909608039,-0.252769332315692,-0.0317539423842745,9.15558773694091,0.490083795880008,1.27151651757121,SQUAT_UP
2.61,-0.266612980377728,-0.648482477835184,0.319156648279423,10.036650272877,-0.676305562297829,-0.0920103148036285,-0.210307972367416,-0.681264601215052,-0.227551473217974,10.1631193806149,1.64717780014028,0.430207192933848,0.044343409280478,-0.262990369162846,-0.0442049711396982,9.18579563719071,0.453340959923229,1.24609343335467,SQUAT_UP
2.62,-0.320721679750972,-0.656352015890203,0.3292196294078,9.77379765279278,-0.833139568275592,-0.376092229030769,-0.180971644649283,-0.66098672416698,-0.233212471962054,9.97682321357462,1.31593512684697,-0.392137781622967,0.0616425715230724,-0.27919636368972,-0.0428507725922483,9.25048796004635,0.413165565301443,1.17047612937443,SQUAT_UP
2.63,-0.403359608205579,-0.642410810178823,0.328988660387625,9.79788868899786,-0.824111846443092,-0.296353607781768,-0.080704044693213,-0.63653559421279,-0.230350014079715,9.67956044016801,0.86802416053303,-0.879662480574816,0.0911227818260806,-0.298625586402177,-0.0347377745989233,9.27603636363725,0.444365513013669,0.876027796557963,SQUAT_UP
2.64,-0.476348612684386,-0.621802122885417,0.318222444797748,9.90376640270484,-0.953371214792533,-0.252776997334043,0.0656191543342945,-0.568507322651281,-0.211776061239649,9.74018931461164,0.463679673036388,-0.943715762257477,0.144030990459693,-0.309965031983727,-0.0196929398945295,9.3870750205276,0.463983116087815,0.799669017496979,SQUAT_UP
2.65,-0.521399163847509,-0.578424274894447,0.286022138775111,9.92912549198101,-1.32289399278815,0.009942119774784,0.193013331308891,-0.501303166864259,-0.198593415306304,9.80514161967687,0.415528959703216,-0.999252271745834,0.180895881545233,-0.309224503047645,-0.0059120180119405,9.50429454426804,0.509538309449363,0.86978609903912,SQUAT_UP
2.66,-0.552771787688725,-0.513776619253564,0.255968503449958,9.82318361990173,-1.67649095242067,0.19303519290767,0.307068544558187,-0.428151507041473,-0.201016911380846,10.1720910146827,0.858719058552263,-0.884966731019546,0.194355254366371,-0.290596252164505,-0.0001271545818469,9.66943087677831,0.610267759948331,1.0644245709548,SQUAT_UP
2.67,-0.569525247281005,-0.451079546555545,0.234380117891406,9.99173525913917,-1.63594859341095,0.333334719197302,0.431090223234205,-0.347460563485194,-0.182812978631773,10.1600247791215,1.81445284720385,-0.499252366603186,0.203696728211055,-0.273256168874497,0.007353052119262,9.80053280675026,0.730391990591351,0.967114723519962,SQUAT_UP
2.68,-0.544916496820835,-0.370110931331501,0.216267136143856,10.1477439200165,-1.87105472899382,0.533611267597911,0.51201222140429,-0.286653644861576,-0.14896886777439,9.99612247525435,2.86626878875736,-0.304831411244468,0.229841068510855,-0.240620051860217,0.0131114138775029,9.91726859932843,0.870927619076777,0.847445622431704,SQUAT_UP
2.69,-0.480152455775712,-0.262077284149509,0.180071827191844,10.3886571939224,-2.17874292874897,0.428805643808958,0.457686194757507,-0.230581598331166,-0.111499456196617,9.84050600941813,3.499828339224,-0.229081666913997,0.228862694452059,-0.200297843367917,0.0123689285765815,9.98782736648985,0.854470045458654,0.920047033925326,SQUAT_UP
2.7,-0.396715795488249,-0.143041557188275,0.130190233773983,10.298453279144,-2.38061526068015,0.290803987865017,0.224492001624701,-0.19727708449773,-0.0648545510225754,9.51940316652471,3.63577116862159,-0.347908298916019,0.206561952357412,-0.167754808956851,0.0203507953119367,10.0642082420337,0.787272214115683,0.896582219066333,STAND
2.71,-0.23480388981528,-0.120486341930053,0.0949116823032095,10.1753459158109,-2.57585996297728,-0.0337414652655126,-0.0645688881282045,-0.155237070859993,-0.049639565540056,9.12035277972978,3.67713885963304,-1.14243218568579,0.203506353340131,-0.131679180034878,0.0314678213007287,10.2006693683291,0.673273357714885,0.825563431099704,STAND
2.72,-0.0838322038232399,-0.095982688923535,0.0740010710998256,10.0246442653123,-2.41200082860801,-0.38552726312677,-0.269872448761083,-0.133611842419228,-0.0797120480575548,10.8023078947063,1.86056208893182,-1.63085060773672,0.187689959304929,-0.112965831513426,0.040747955547266,10.2038912884677,0.666540886469327,0.958166924592495,STAND
2.73,0.0309607705420756,-0.0696660784884805,0.0441339948209579,9.7933961383215,-2.01869201131371,-0.795163224976336,0.0658964374065823,-0.181673348457626,-0.0445755076583235,9.69948652207884,2.43527285494524,-0.738953223403828,0.178750568268169,-0.0909082157560294,0.0429946580597589,10.1231693448608,0.787254826786552,0.902569627909981,STAND
2.74,0.134307730633018,-0.0617400115965787,0.0077730497789686,9.44762180638923,-1.66670874766038,-1.35824210201965,-0.0126159429400018,-0.333873003267583,-0.0999932677150807,9.4352510759209,1.01422632201811,-0.908232812362071,0.173681310574617,-0.0742647376416612,0.0346984047236814,9.92754406840403,0.948006292493723,0.876007970197718,STAND
2.75,0.211755780982086,-0.0658076921676732,-0.0010463949003673,9.50370540375044,-1.5082272949231,-1.55045498830701,-0.114299413665916,-0.206842904017658,-0.05255643106382,9.71790009911468,1.45660758593974,-1.88960030362198,0.1414619108039,-0.0759666920438073,0.0248693586876064,9.82059154372798,1.02024925639853,0.895182146545442,STAND
2.76,0.218511835805575,-0.0701459272197144,0.0129161469026782,9.48904779304799,-1.18865509239686,-1.65765841171903,-0.0026187731817526,-0.101561573700905,-0.0452857996574194,9.75650279216268,1.43324355379395,-1.8515197750369,0.108156963912623,-0.0702411487402016,0.0237502978147812,9.73945649217996,1.05409199458206,0.840147778374647,STAND
2.77,0.19998726278326,-0.0597104564685732,0.0213370970955495,9.51769597367068,-1.10738673784648,-1.74583899764156,0.118839688235056,-0.0315428661553071,-0.0667258281465174,9.45970559751448,1.22846854324,-1.28015677195405,0.0765678678264845,-0.0515673510905562,0.0209495614435334,9.68059535193391,1.09832404367332,0.90867050467315,STAND
2.78,0.160898148674121,-0.0357869866977516,0.0206077250749609,9.74532879542801,-1.38880804819613,-1.67435075808204,0.146932732971956,-0.0159605362362207,-0.0845043583593472,9.74546246854922,1.41607802751638,-0.890265440738114,0.0506638038978827,-0.0480284178789266,0.0144645023188557,9.68255085277184,1.09544331956233,0.976361005359111,STAND
2.79,0.160781757853764,-0.0201557673859567,0.0153334496001406,9.80160167870181,-1.38881307063788,-1.657273392142,0.163580692565584,-0.0112627711636767,-0.0747522915225282,9.8168517439408,1.79710584884008,-1.00740320190486,0.0235194532160351,-0.0663799089530371,0.0147686502249121,9.75641637313263,1.11633790411194,0.896304939010979,STAND
2.8,0.155974561550416,-0.0381436233831731,0.0149406363893967,9.5862044980762,-1.45807302909538,-1.38547319275304,0.105896701935535,0.0047872337721347,-0.0638818565485086,9.91363571595193,1.80823364417349,-1.14344730648745,-0.0148215714214678,-0.0925466731268177,0.0100196127272261,9.76394787383998,1.0610049176688,0.88710730038723,STAND
2.81,0.114516587543302,-0.0577794302905552,0.0271889010100201,9.59041522066505,-1.14006230932449,-1.18078533469099,0.0736418842453058,-0.0125218252936728,-0.0469288271165745,9.68397185444481,1.89785602329317,-1.32343885808095,-0.0251214271058654,-0.092176821608864,0.0032863776066612,9.78593651149368,1.02644093724366,0.583968579586211,STAND
2.82,0.0707669833609444,-0.0664953386874105,0.0391062813556943,9.69417103455417,-0.960912160135385,-1.37017448038851,0.0695472304522191,-0.0585263106457964,-0.0433101765350256,9.4706245514566,1.78186716105477,-1.4041222782047,-0.0223330120676873,-0.105650373040618,-0.0193271664595112,9.76557960869771,1.01415396282931,0.550238780167428,STAND
2.83,0.0050684554911415,-0.0422151104174549,0.0391141197866854,9.71526822668452,-0.880501168950758,-1.40102114073306,0.0622354197126711,-0.0931002908731654,-0.0509809022762976,9.37261633151434,1.65491863284203,-1.62240964456787,-0.0241978810434476,-0.118429144122266,-0.0314569428894371,9.76200154399932,0.932616383444301,0.366612007989536,STAND
2.84,-0.0680082169532495,-0.0447144054624747,0.0414464907395715,9.61030487776421,-0.794405709776636,-1.15607311017949,0.073922904366848,-0.0802541967408816,-0.0429622933601171,9.52557461278853,1.64156265252763,-1.52764608359123,-0.0257982159343922,-0.120953698183025,-0.0452499792443072,9.76313078267032,0.847083993117534,0.401824735365229,STAND
2.85,-0.134597725131638,-0.0395802599139737,0.0341718657545998,9.74807860450941,-0.963665219288636,-1.19639635865964,0.102297731563867,-0.0494331314584154,-0.0408648067682971,9.46736955953691,1.83125035942297,-1.4441067969901,-0.0511082009880377,-0.115970547550293,-0.0602815811652136,9.87206866798676,0.865027346330618,0.412643738456593,STAND
2.86,-0.15850973419733,-0.0312289712560972,0.0335871715673201,9.74626393595728,-1.24060226772138,-1.43766016231981,0.110226379932447,-0.0194344824636664,-0.0352882907144412,9.48922006576567,2.04216708508921,-1.49110060646973,-0.0527363469971244,-0.0960030485941035,-0.0704728122154575,9.97583306074071,0.889188624358402,0.229394797639125,STAND
2.87,-0.166363752424366,-0.0285592414354271,0.0314989578791958,9.55048026035156,-1.23896861875196,-1.55769253726257,0.099618708772887,-0.00088994632865,-0.0302410511845111,9.52446338855981,2.26139847914969,-1.4281853287115,-0.0438444164211137,-0.0695984283504555,-0.0721915769628559,10.104038382502,0.835462738280447,0.21658276576579,STAND
2.88,-0.160118798559707,-0.037076044117901,0.0341274149559502,9.39115957176127,-1.20261435633372,-1.53182876336691,0.0749486291912543,-0.0119201907391515,-0.0468745289889022,9.70323720294881,2.08989780197588,-1.26153800234442,-0.0351943059271615,-0.0345035651023318,-0.0583012752700803,10.0785827877117,0.792625805187043,0.284344545278909,STAND
2.89,-0.173828417612151,-0.04925671892545,0.0354896842540454,9.41629523966803,-1.26201181874637,-1.33499313451961,0.0272393332471176,-0.0176688055614575,-0.0277474999367303,9.57598722226988,1.81115738747944,-1.31344523661957,-0.0195183071410419,0.000207921025281,-0.0290042438466374,10.0993954430575,0.721901027235366,0.3047153596635,STAND
2.9,-0.172877237408718,-0.0553479830087069,0.05513007399048,9.56468497239896,-1.28072846333465,-1.38403453687928,0.0153716070491641,-0.0172602888531279,0.0042247919875983,9.52801088560226,2.0117377801362,-1.27129686866999,-0.0176234494360613,0.0284102051054399,0.0039935433925012,10.0253351007355,0.789949043858135,0.334506965993109,STAND
2.91,-0.150904952533226,-0.0474369971021751,0.0584248177542328,9.77448430990831,-1.30610432071877,-1.32501917170968,0.0104734766026408,-0.027409541613786,-0.0008043956320493,9.7332637233816,1.80371733359621,-1.31436691224591,-0.0126420726516391,0.0463320871541546,0.0334136989959928,9.91021423699117,0.8283464063976,0.342535738591431,STAND
2.92,-0.123126308678965,-0.0368932391802847,0.0637719443089705,9.72352982889491,-1.15367504724643,-1.27244298532647,0.0020205774073688,-0.0062916582779959,0.0048212493899865,9.66806024836493,1.88319634851755,-1.43630902395359,-0.0254498451984434,0.0444206353752866,0.049244918635486,9.78170505480939,0.884832761845397,0.35220983763925,STAND
2.93,-0.0885779522788361,-0.0360522015156092,0.0492623233266192,9.74607509430999,-1.01583260884791,-1.25006371984523,-0.0092741897826284,-0.0080059944523819,0.0063072070345447,9.56005800959621,2.0224682311176,-1.52379883978893,-0.0381174462311804,0.026917587059544,0.0563228032050425,9.77831737172953,0.795538676946212,0.207206557218506,STAND
2.94,-0.0887033377830107,-0.021720612254207,0.0432927606785258,9.61291416268181,-0.963862250756795,-1.20824981212454,-0.0197859672429469,-0.010916489729546,0.0061192824073769,9.487368415917,1.82750186886746,-1.41091709749662,-0.0444280232637733,0.021648845738968,0.0546987048748903,9.70601902329145,0.72088233833453,0.014420089794832,STAND
2.95,-0.0999736498741276,-0.0277296793174801,0.0404801014235413,9.54370029579528,-0.962062804604505,-1.0892510648879,-0.0324252754691283,-0.0173338695035933,-0.003149491825201,9.42660550717834,1.6948125352572,-1.53674712176604,-0.0488733899228014,0.0361767167295814,0.0497143435966814,9.59930726554062,0.612851729967724,0.0662583241420125,STAND
2.96,-0.118438342602093,-0.0242454021859949,0.0394736815454007,9.64872717702346,-1.17381463186071,-1.01603318965684,-0.0295426500363612,-0.0353271653520419,-0.0144343605243445,9.32450464402119,1.62146833913247,-1.55315898527788,-0.0547981895278346,0.0480645412419458,0.0412845868461824,9.59334874508926,0.620381287487267,0.364294497359577,STAND
2.97,-0.116524302060145,-0.0344207735973034,0.0384403634900091,9.80941349253254,-1.51769356505045,-0.961329279291111,-0.0004936883288153,-0.0608477898914032,-0.0206823523427486,9.31407959477546,1.49651414384208,-1.41323892176803,-0.0634544063955937,0.0354540968040543,0.0327220732287881,9.56827188635677,0.743083712723698,0.446272084531511,STAND
2.98,-0.0806322474080925,-0.0474602457002852,0.0352672486169384,9.80111914368031,-1.68051636363815,-0.872681607218586,0.0135135405757569,-0.07960881135825,-0.0252793504594172,9.41427239067767,1.35428298378298,-1.38729875763051,-0.0423940509570048,0.0139026776182027,0.0182826111852773,9.58937602699586,0.841194707317212,0.475943313954824,STAND
2.99,-0.0326983856881246,-0.0437562980401432,0.0320618066188796,9.83391203539266,-1.68540956859521,-1.02475289688257,0.0227690396006136,-0.0761420030563352,-0.0185036481879269,9.5504739641604,1.35666644969956,-1.29060036941325,-0.0393214960519573,-0.01531191907165,0.002395837799987,9.69109493989991,0.907629469060441,0.475785884784399,STAND
3.0,0.0229970290833857,-0.0366894159053493,0.0236680711141711,9.82636646049686,-1.63327040157008,-1.08799997643011,0.0431174980251423,-0.0593167805349388,-0.0122221750453528,9.73437195739722,1.48226750170225,-1.17652386640928,-0.0345822785071188,-0.0315216606992157,-0.0186118522915799,9.85231013154997,0.841964830998884,0.419006297640327,STAND
3.01,0.0545687086827858,-0.030014043536301,0.0204893452385898,9.6667319377547,-1.51930344949037,-1.2466637612244,0.0707593209190368,-0.0455110060375613,-0.0118627318794634,9.9276639752589,1.57859376770332,-1.01617881170887,-0.0440147821862128,-0.048932003918603,-0.0237537441401282,9.88360878704114,0.752141069716271,0.314024393053993,STAND
3.02,0.0546382948934372,-0.0417527734703965,0.0189370460260006,9.61048012052045,-1.31069636862037,-1.24899046430833,0.0716676137604301,-0.0056665114429518,0.0002433293566527,9.82582891586098,1.56725338271231,-0.86254516348453,-0.029748881680509,-0.0513759379908465,-0.0240618096252289,9.79982553629023,0.703299164870051,0.212146080092535,STAND
3.03,0.039602210878372,-0.045243124089175,0.023886153824749,9.55952340056123,-1.05555348752537,-1.28027691790846,0.05241312361214,0.008906439912566,0.0070452331491457,9.70620546781763,1.65393110881704,-0.888936241327033,-0.0122989626803973,-0.0417497747303996,-0.015683925323397,9.77267663514771,0.657822741135025,0.206943430854754,STAND
3.04,0.0292768019618094,-0.0452116770553386,0.0262421870675099,9.61779953232242,-1.02027891798377,-1.31605838045788,0.0206648738051231,0.0149942411361943,0.0095185075361915,9.54606135329682,1.77622315038549,-1.06659640764468,-0.0074530782541342,-0.0426725693397325,-0.0088663588913319,9.72531471283704,0.686059793533832,0.204986642143163,STAND
3.05,0.0018860605981004,-0.0372211818695949,0.0263345782189826,9.68108221618588,-1.17551516141431,-1.32714029415928,-0.0115576610599203,-0.0117341276188863,-0.0010979980586332,9.4896887751327,1.68976750614704,-1.30602979598367,-0.0011653771392088,-0.0409040779166115,-0.002058583592823,9.69503912896746,0.731035037138641,0.0809945900131877,STAND
3.06,0.0122533625153596,-0.0324475814101186,0.0250035962407728,9.60724574755457,-1.24240852683378,-1.28098095959369,-0.0242111341374294,-0.0181673446439912,-0.010336633391715,9.58192854807181,1.61626176022249,-1.41180774582351,0.0010668134323882,-0.0334289500681366,-0.0037707658969508,9.74241541622845,0.704263931892287,0.0752497207827085,STAND
3.07,0.0051785170599096,-0.0320525958694191,0.0178033334148514,9.54415677411453,-1.21575060362551,-1.29049228026818,-0.0307364594146404,-0.013141900212372,-0.0041315722439167,9.44151599285605,1.7228685978624,-1.51470006532595,0.0109823999949769,-0.0179185110438979,-0.0090494255900708,9.83779694056436,0.650021912549125,0.0927938942694979,STAND
3.08,0.0081421618556624,-0.0204806278107993,0.0167535551613865,9.56600974354282,-1.18914213144744,-1.19896299693005,-0.0288486248706977,-0.0205692722732483,-0.006193762144893,9.47054217102784,1.71821553828191,-1.48587416811641,0.021379782614063,-0.0148694871340585,-0.0040597604885887,9.81202345903168,0.601761709464751,0.13912175719396,STAND
3.09,0.0116994025835728,-0.0208786333238639,0.0084795182098359,9.58270616944188,-1.20867196233762,-1.07886575525286,-0.0119409723522091,-0.0292790728122941,-0.0145365375278824,9.49709695550981,1.74729590134537,-1.4495038607419,0.0298071739380363,-0.0090349552791897,0.0009964683216475,9.75990710055702,0.592874238130525,0.21226272030257,STAND
3.1,0.0031914427499803,-0.0158017188132247,0.0116099009391686,9.68648798420761,-1.23893278159021,-1.10927705468738,-0.0128953825493122,-0.0228330431473653,-0.0157987373059736,9.59357019521328,1.74453498362218,-1.40847045517468,0.0368187300528622,-0.0059180099814252,0.0077934780697745,9.7735133303377,0.660202348865255,0.213042929183869,STAND
3.11,-0.006464054237461,-0.0063595478682811,0.0103556281860732,9.73496079111634,-1.23846492468377,-1.20496342368791,-0.023609592648584,-0.0141115789384011,-0.0149574191332412,9.61577223945526,1.69487429775936,-1.34216960443518,0.0512052388532732,-0.0084901156714474,0.0161165708272761,9.78043970975181,0.780955951835993,0.215556362335887,STAND
3.12,-0.0095598861592543,-0.0027333421461864,0.013206283120271,9.73306258227468,-1.19485247493168,-1.17415898080597,-0.0247271914599356,-0.0069552887732703,-0.0060491970016232,9.52964475781941,1.71137053505672,-1.35525124416991,0.0540629310873863,-0.0065970506548978,0.0212699291794835,9.79350597435458,0.847652537200464,0.191654186852367,STAND
3.13,-0.0076738069272285,0.0097432239565864,0.0075137931009018,9.69832124164869,-1.19348914514447,-1.19804058926547,-0.023786513494077,-0.0102058605124147,-0.00282213195576,9.5384919382132,1.75628486225563,-1.31635726372401,0.0494747704708123,0.0010643606707583,0.0197034033439796,9.84112076730888,0.906655503736753,0.191405429161595,STAND
3.14,0.0139841225245857,0.0065611625167494,-0.0010954166045902,9.59056924562631,-1.35728979989608,-1.25538040611771,-0.017719762152478,-0.0181391812887931,0.002449479230278,9.57673731011785,1.69042475938306,-1.3276994314538,0.0439742606400607,0.0040700646147014,0.0111943268637852,9.82705941725983,0.926237378812176,0.167803762603402,STAND
3.15,0.0250571816497361,-0.0019123873799671,-0.001396549981505,9.50375791751621,-1.36881537299963,-1.20530807816874,-0.0053066333762421,-0.0258402552797337,-0.0014293159053811,9.54027075931294,1.61861362615606,-1.40730215604288,0.0455838641193797,0.0100973509589674,0.0164009048837978,9.79266123046322,0.932432380042597,0.144825206673071,STAND
3.16,0.0282615052840391,-0.0068119441988893,0.0040129082830392,9.55426378385439,-1.20941311576465,-1.16421155620645,-0.0056649562189608,-0.014417967793136,0.0012276957351205,9.53066367846591,1.61584182184896,-1.54024538873991,0.0382112283219873,0.0122799354212286,0.0217737614547121,9.73989404989483,0.834531104395096,0.19317312644262,STAND
3.17,0.0356009150279552,-0.0018776575903676,0.0052676986411966,9.68636200294001,-1.10805302716379,-1.24580489232161,0.0110493706846847,-0.0146756766138352,-0.0080890315384177,9.49868274441052,1.65512168427957,-1.56299882650783,0.0261325701558782,0.018739505776712,0.0238090853961247,9.72654948213338,0.852691046869974,0.195350230467623,STAND
3.18,0.0276073309878887,0.0086212961264425,0.0114866948236884,9.74869925508645,-1.13813208386703,-1.23861732541571,0.0155642780367436,-0.0211404570878585,-0.007988609708937,9.47832308948596,1.59118211375457,-1.45751534980887,0.0083366230114462,0.0178980214212988,0.0224510581902293,9.69287950846212,0.85728066704519,0.19809840099653,STAND
3.19,0.0247840684786066,0.0175813859128983,0.0083916234132254,9.74182532630633,-1.16381169654435,-1.2787738380193,0.0133844963942905,-0.0182613101720787,-0.0131253828297458,9.50717597802107,1.65935388202638,-1.43592505964554,0.0032652556034415,0.0085060174594994,0.0207673728136841,9.74853057697188,0.860555329001885,0.2468291151339,STAND
3.2,0.0206659320425501,0.0186491022051304,0.0063426846110689,9.65714816177455,-1.16441283129206,-1.37719478298192,0.0119672380290308,-0.0124612734307481,-0.0094437126897388,9.63339579796761,1.65030425426404,-1.36462836871578,-0.0009838371165369,0.0073764648589665,0.0121910161916357,9.76832660535141,0.873128973082645,0.223016428671622,STAND
3.21,0.0149979843154573,0.0091157880930135,0.0037975571625099,9.57746571629845,-1.17465313062764,-1.38543484664809,0.0088012009609037,0.0041723774346002,-0.0033655907790713,9.63752858959618,1.72997670298627,-1.39455728714008,-0.0100386407568738,0.0036067034848804,0.0071609165354714,9.81571732060842,0.845022417571214,0.221572115936982,SQUAT_DOWN
3.22,-0.0054922251953317,-0.0059821653278236,0.0067414932598615,9.56344441301787,-1.20140964400346,-1.36759614718782,0.0276907976210016,0.0019631057842274,0.0009682612893733,9.52482692319084,1.8536535425932,-1.28016474814898,-0.0156598454588274,-0.0002834076626136,0.0037899243981715,9.76159388901995,0.837775579037032,0.223125345487944,SQUAT_DOWN
3.23,-0.0275270785543469,-0.0068487979218542,0.0130276918498626,9.55079347943286,-1.25042484200792,-1.28096985005066,0.0211979507534943,0.0005925677375351,0.0032434234315671,9.56084492526147,1.78860391510042,-1.36798784629487,-0.0081648549660873,0.0009152631077939,0.0001773051486353,9.74878111875751,0.857206027801794,0.248581231792554,SQUAT_DOWN
3.24,-0.0253442940578029,-0.0060298365435606,0.0148241835435579,9.62664608749649,-1.33315484915926,-1.27534869716346,0.0041300850009151,0.0113474245997741,0.0066993863453933,9.53863243480496,1.72515452269977,-1.33732073112635,-0.0054292028430024,-0.0005749238870575,0.0035739935601144,9.70833092650232,0.917990979156316,0.251448773431619,SQUAT_DOWN
3.25,-0.03192047950881,-0.0028359726395334,0.0182031777026349,9.70772862442321,-1.34706407443558,-1.19657858252011,-0.0184443574926062,0.0069729593791664,0.0012218358826363,9.58862261753769,1.66952695200375,-1.31589397848575,-0.0082116850658415,0.0009636114576571,-0.003284897839779,9.7162905200412,0.862438366426611,0.298630638415224,SQUAT_DOWN
3.26,-0.0196799270317771,0.0034985201966577,0.0173715828803446,9.6849058468421,-1.35434724135269,-1.1897197133755,-0.0254361361030854,0.0136164714367419,0.0058255367086158,9.5391494827298,1.65184913141289,-1.32877500436192,-0.0138329602140331,-0.0029257633898456,-0.0066562674580725,9.75692691410395,0.889897698068016,0.298285711753248,SQUAT_DOWN
3.27,-0.0105767129614828,0.0112715983707592,0.0108745801457395,9.66402616392071,-1.3045374588053,-1.12984528783793,-0.0218228974644266,0.0008206213318242,-0.0032167475254945,9.51626523258087,1.67169901097416,-1.48106588551047,-0.0072325303197218,-0.0099172946476384,-0.0085739364293719,9.78386041766221,0.849956707160817,0.295877655812287,SQUAT_DOWN
3.28,-0.0007747815577649,0.01407841797412,0.0067025438439175,9.68664441410861,-1.29946113263391,-1.13586310394532,-0.0071014128960151,-0.0040777811934484,-0.0081891272745183,9.54095633064025,1.62891144936124,-1.51360721015279,-0.007855696181595,-0.0078513964257754,-0.0085461932137089,9.79730660847393,0.830446856197123,0.294132209360262,SQUAT_DOWN
3.29,0.0147540852697135,0.0146761230389808,0.0035422923858925,9.62604746335095,-1.31577446709178,-1.17223493282071,0.0038938018211363,-0.005977149949405,-0.008389911044436,9.49798849498142,1.61666415250793,-1.47434276407943,-0.009004191834062,-0.0003086985667252,-0.0084701091212956,9.78223638272757,0.76496789234521,0.243472165727489,SQUAT_DOWN
3.3,0.0286696714103435,0.0164100213286891,0.0014208049324659,9.6191078038342,-1.3180964442982,-1.11110083510804,0.010400435221492,-0.0077993775653698,-0.0126377035532427,9.50659586747501,1.62999198875392,-1.52148853401257,-0.0020657136331802,-0.0006242664266995,3.95764418356e-05,9.71388071596148,0.779683029003462,0.221305430175009,SQUAT_DOWN
3.31,0.0468234356999058,0.018424967098502,0.0021223006040579,9.71279927760706,-1.36210522956476,-1.09906243686477,0.0311794946845637,-0.0174322292072039,-0.0103713874031578,9.48155497584623,1.60133383077869,-1.48422460918845,-0.0020455391707361,-0.0041577853057796,0.0086739722200282,9.72209257757974,0.811705702508289,0.270651846319654,SQUAT_DOWN
3.32,0.0698446128425951,0.0192158522825698,0.0082275751562935,9.73029260989562,-1.42652142927574,-1.17658984369292,0.0330149899601007,-0.0130047317765911,-0.0130787367606511,9.53523678394169,1.62582935529404,-1.49516019913552,0.0006434398276404,-0.0055995110044041,0.0086072064115143,9.7825165897087,0.852079339077841,0.245268616536139,SQUAT_DOWN
3.33,0.0906268030080787,0.0169872915421296,0.0040231566079867,9.70469611827739,-1.36711749045798,-1.20512817389817,0.0373782061514638,-0.0196808210024971,-0.0113343782223854,9.53249329352481,1.65985576568682,-1.48880740233882,-7.78710021002e-05,-0.0069445285653359,0.0086136758977814,9.76293683819028,0.837039776576789,0.269222212635323,SQUAT_DOWN
3.34,0.110795447606008,0.0101750200614558,0.0044779795655599,9.66683367263292,-1.27695163823363,-1.1642511421238,0.0431042561775634,-0.0203056337667939,-0.0139115498972903,9.57511038513886,1.63236529601212,-1.43927164781666,-0.0042332054243028,-0.0081680072714965,0.0069623696474321,9.76899187926475,0.782807069799015,0.242387994244398,SQUAT_DOWN
3.35,0.120076238983129,0.0014586818499338,0.0044647926542968,9.57534790487291,-1.20117581216003,-1.22133828689438,0.0522495729291189,-0.0234280642717759,-0.0094476757607042,9.5952361061211,1.61492067971658,-1.36591188348922,-0.0077418481036189,-0.0114818625042124,0.0070152739227999,9.72771933007056,0.755797270783121,0.217433929352289,SQUAT_DOWN
3.36,0.115707344099111,-0.0062686921451451,0.0081163289238031,9.61388394914514,-1.13721702203847,-1.29414957080044,0.0559449875610931,-0.0200353376982452,-0.0102888739598008,9.59898691321739,1.69426249673834,-1.39840973952905,-0.0023643641406878,-0.0143661533039628,0.0068809132101908,9.75544787466911,0.71375747553773,0.238703850287016,SQUAT_DOWN
3.37,0.0974251342174894,0.0069163097958741,0.0091638465911517,9.62638700039956,-1.09162125856631,-1.3805910438053,0.0532886569122192,-0.0146059833995992,-0.0085241642953694,9.54708143140951,1.66910670575272,-1.31476307039536,0.0030370449091418,-0.0172753056102527,0.0084777129067021,9.72789189500641,0.754364098719349,0.214673338479088,SQUAT_DOWN
3.38,0.0802616762978261,0.0218193763044529,0.0073546798677396,9.58129260685181,-1.10523606870227,-1.3638666010641,0.0482282309638295,-0.024976029978536,-0.0118913549119009,9.47217508156696,1.69531473423251,-1.29908708831455,0.0127678427786857,-0.01211541048787,0.0100353301453313,9.74925612999076,0.85427614395998,0.239886428305608,SQUAT_DOWN
3.39,0.0419289389882235,0.015751382835412,0.012423052222206,9.61912509237395,-1.17570025237836,-1.29818463475306,0.0377604140094609,-0.0374926191085212,-0.0179391771266937,9.50332051836788,1.65731196085444,-1.28135302899028,-0.002439411045173,-0.0178009466473433,0.0085955423540478,9.76241098125342,0.921730369411402,0.215522248395333,SQUAT_DOWN
3.4,0.0109633864602044,0.0172132589410935,0.0112335249422889,9.65891666300031,-1.21190292053244,-1.28224541129804,0.0235245807543384,-0.0383559893253324,-0.0218280303877023,9.58606354323858,1.67726173929826,-1.26482776000684,4.75042566511e-05,-0.0035582996696451,0.0103684525838156,9.79085653713994,0.878749675672837,0.261363662708537,SQUAT_DOWN
3.41,0.0014007728489972,0.0232066440195628,0.0096877715532482,9.61550537483642,-1.26950083091574,-1.29680764925095,0.0168973809210899,-0.0431363085793976,-0.0198627725685611,9.64094405097951,1.71033125817575,-1.37863624660696,-0.0046320112433399,0.000696519010806,0.0087664066427909,9.80415743859856,0.76948135994747,0.257792828075473,SQUAT_DOWN
3.42,-0.0125528119892017,0.016679991072927,0.0107985515769818,9.60500985995067,-1.28410749132372,-1.2563894606422,0.0212673485142539,-0.0195020294177102,-0.017136218541251,9.64863845140274,1.7970456020496,-1.43492944244042,-0.0073464340986902,-0.0013453803144382,0.0140090934238957,9.81703015834875,0.748707385776742,0.232452709365978,SQUAT_DOWN
3.43,-0.0304189255857751,0.0173974930446736,0.011626586228115,9.63112619508971,-1.26679683024546,-1.24141197038052,0.0201623549879824,-0.0123318464448316,-0.0082292198278636,9.50592828329673,1.82239299779163,-1.43143968586275,-0.0076224183096653,0.0073945716779911,0.0244683836042207,9.795439275525,0.73470793816138,0.184206346808483,SQUAT_DOWN
3.44,-0.0185227089747232,0.0161766497457954,0.008239817793732,9.57100408061406,-1.2045130893378,-1.29616960250952,0.0292645827950213,-0.0067904282822111,-0.0063958810349773,9.47245185549947,1.78121901650059,-1.34732015776944,-0.008717432788866,0.0148884605232671,0.0280098161882933,9.76179257281217,0.738984129970627,0.186505015772196,SQUAT_DOWN
3.45,-0.0166617338182256,0.0177458486700958,0.0087428994985187,9.66967845854939,-1.28114858805285,-1.29459409071856,0.0208992717779564,-0.0039362271111327,-0.0040076646483135,9.49109160652465,1.7242588089016,-1.25714208965629,-0.0072244069361782,0.0175276767112487,0.0314637000997527,9.69255998447107,0.799071593629172,0.362931753091713,SQUAT_DOWN
3.46,-0.021397073076905,0.020311210310773,0.0040992309902469,9.71250643763522,-1.38285998034738,-1.23997139464228,0.0215011578112578,-0.0030918205584526,-0.0105985986533741,9.52077049999383,1.64636891210565,-1.22150633035506,-0.0062563371455917,0.0066476317371875,0.0261725186564864,9.66164530395074,0.800324375454745,0.462873997654406,SQUAT_DOWN
3.47,-0.0233619642966499,0.0113242842607888,0.0100811702749499,9.70194161397184,-1.39700112580449,-1.2001967452534,0.0038062853748937,0.0090533807303785,-0.0070849493985385,9.58604256209549,1.57679450289728,-1.27892502410283,0.0007840378693447,-0.0057520303669884,0.0190044083630252,9.68939930180729,0.756719148280052,0.485411858968584,SQUAT_DOWN
3.48,-0.0139508390657814,0.0183103145249644,0.0048624478963277,9.64696994405441,-1.36709226054644,-1.26527641440354,0.0074348481919068,0.0242927474263472,-0.0085902220236373,9.65083976854009,1.54794553952607,-1.42694505434809,0.0186019362104937,-0.0204456704233898,0.0063879838719426,9.74237465867747,0.76350710647372,0.433955886111116,SQUAT_DOWN
3.49,0.0173442450221673,0.0247503002350189,-0.007379910679668,9.64426349235993,-1.40251885647033,-1.384922374857,0.03739348820613,0.035499412850166,-0.0048688075280585,9.69007878434097,1.51439911198549,-1.34902439607765,0.0211094152529069,-0.0287371220458131,0.0080130861136971,9.76942445786829,0.722178973077921,0.429488656813189,SQUAT_DOWN
3.5,0.0478052617119484,0.0261299122533596,-0.0079807092061158,9.55673356959957,-1.46868074187964,-1.21356878371976,0.0757713616253021,0.0623148116612334,-0.0019248234271489,9.77593362072992,1.64499973396358,-1.34611559709335,0.0254180296467378,-0.0241569252350511,0.0131519716998338,9.76961405301223,0.721244679321675,0.426736998778738,SQUAT_DOWN
3.51,0.0431278551033468,0.0335095624027751,-0.0116174109726031,9.59906036368279,-1.36688582754001,-1.16238363230616,0.096192332527406,0.0922172797762879,0.0104200058216162,9.68622081575469,1.69279085425947,-1.42121867180167,0.0274465254145794,-0.0079962852000109,0.0253463183259611,9.72187695608189,0.747428342219726,0.402697461982821,SQUAT_DOWN
3.52,0.0454522900199862,0.0548348367167064,-0.0140500677426174,9.61604563365909,-1.30618504637789,-1.22447927398062,0.140499150708723,0.106789033834552,0.0097552662916996,9.68088045268161,1.82293759822702,-1.30349861629832,0.024670812071021,0.0055307554146729,0.0410949379386025,9.74250544767903,0.757750910633134,0.402174451843475,SQUAT_DOWN
3.53,0.0330599504900054,0.0780492651484658,-0.0174998945997834,9.69800605338104,-1.31729487299859,-1.13749177004257,0.157801149911163,0.136411161130019,0.0097023220543948,9.60510943510448,1.99270846281195,-1.36730084401427,0.0127541519845951,0.0118700566564388,0.0535336174985383,9.71807061080558,0.791938156762367,0.47795604301779,SQUAT_DOWN
