time,left_angular_velocity_x,left_angular_velocity_y,left_angular_velocity_z,left_linear_acceleration_x,left_linear_acceleration_y,left_linear_acceleration_z,right_angular_velocity_x,right_angular_velocity_y,right_angular_velocity_z,right_linear_acceleration_x,right_linear_acceleration_y,right_linear_acceleration_z,pelvis_angular_velocity_x,pelvis_angular_velocity_y,pelvis_angular_velocity_z,pelvis_linear_acceleration_x,pelvis_linear_acceleration_y,pelvis_linear_acceleration_z,label
0.01,0.0676233640081133,0.0315259092438203,-0.0395646757561911,9.52019683676389,-0.304882567500736,-2.16160086782188,0.158838599129028,0.0007125146976354,-0.0408903405169241,9.38633794443132,0.389176096027873,-2.64123815679278,0.155706530893675,-0.0317793102520179,-0.0122426644782985,9.7177476235035,0.826736089096432,-0.499917860365855,STAIR_UP
0.02,0.089701592547822,0.0276796535093637,-0.0361141859314877,9.57642694259442,-0.136035178368267,-2.16536916169927,0.134690048686176,-0.0086754228323695,-0.0349822238305322,9.45641302769794,0.417034259511758,-2.62732776581903,0.152882125526221,-0.0343009260083982,-0.0038372924667685,9.71945008468949,0.87854002106998,-0.550029615245255,STAIR_UP
0.03,0.101344257042724,0.0235479797288427,-0.0323712812795604,9.54967834819075,-0.0731903065798624,-2.10115830676471,0.0913818029498253,-0.0074229769870832,-0.0374497248707729,9.41852100116652,0.452882977427843,-2.59831064392305,0.150459404919339,-0.0366714907444027,0.0002705226693743,9.71357445601657,0.874757037257033,-0.506412574228829,STAIR_UP
0.04,0.102763730428464,0.0182038302232562,-0.0317011139134616,9.5626636399592,-0.0969651835603384,-2.07846037807242,0.0693639208244506,-0.0174973441391352,-0.03056609300227,9.36756932528762,0.45743466512631,-2.56796013225523,0.148195951891959,-0.035758422292789,0.0034050438197358,9.69017940452437,0.897944280577206,-0.537054714029436,STAIR_UP
0.05,0.0911371398216073,0.0144061308199483,-0.0303085214449314,9.59595064402784,-0.101799417689755,-1.95940195905115,0.0533551661350698,-0.022950391514174,-0.0295349200235044,9.40189554845548,0.39091787807652,-2.526158651706,0.14033183176536,-0.0251544276449909,0.0010776675311128,9.68440350240238,0.893972837641823,-0.492889746188691,STAIR_UP
0.06,0.0815328381711495,0.0108872151189743,-0.0291725618598951,9.62323346234759,-0.0395191141776254,-1.98809778849217,0.0522800445065093,-0.0210374237834227,-0.0250169966665715,9.34486864027329,0.417983567463484,-2.47091699347468,0.132730856069734,-0.0209091588801934,-0.0057466497966791,9.70376637887952,0.918091368987772,-0.467978336086575,STAIR_UP
0.07,0.0894379801596861,0.0131108883596319,-0.031245859281382,9.57799702448911,-0.0512752366475957,-1.97478227547427,0.0558404127857981,-0.0378221553436911,-0.0343792926591521,9.46455974785251,0.280598108084896,-2.41774960851175,0.13104238950864,-0.0197931823851045,-0.0090645423667307,9.67754983732845,0.940784406154518,-0.472854386043138,STAIR_UP
0.08,0.101071548591675,0.0007585605480091,-0.0410149514733764,9.54399508099504,-0.132112268747533,-1.99370052911017,0.0532095388005033,-0.0307249848897014,-0.0285642405467062,9.59023473831197,0.23020319032847,-2.43953441410009,0.133792462044408,-0.0270555399914677,-0.0166747978611582,9.65501309943433,0.915363199094887,-0.480442607041981,STAIR_UP
0.09,0.106756595602148,0.0035484905460997,-0.0372781975152187,9.58956739592347,-0.117473433489119,-2.00550790038684,0.0545606673727151,-0.0162677873565455,-0.018500895644709,9.55447453390581,0.244220809403233,-2.46147910502718,0.132189321118378,-0.0323714399221908,-0.0223208066618841,9.67516849865891,0.891303323277905,-0.434361471340812,STAIR_UP
0.1,0.115317699045825,0.0034009826842611,-0.032949523610437,9.60884480129689,-0.0992256849405368,-2.11116245990297,0.060432802300521,0.0003017383603485,-0.0142489012744313,9.52018395430671,0.334295112607364,-2.43260783432158,0.123393270475828,-0.03711581545435,-0.0186309100670517,9.6534358526867,0.892313880085451,-0.46595598011951,STAIR_UP
0.11,0.127096815681838,0.0072060041268901,-0.0343939206672472,9.58443409386327,-0.0270028441162719,-2.12598135385653,0.053489864764162,0.0133521397283232,-0.0212798420095412,9.488629858681,0.293086600405622,-2.40298574760562,0.119395016199169,-0.0415255154327499,-0.0211400531201576,9.72839455601231,0.900217527036938,-0.486467693437585,STAIR_UP
0.12,0.104123738154484,0.0063143559953181,-0.0335454617069294,9.52953626531061,-0.0476174789824291,-2.06003757426252,0.039120393049855,0.0038756740541483,-0.0248131497830777,9.41396891139975,0.243319302759366,-2.51491724522901,0.121337384678479,-0.0436654584490771,-0.0189190539828556,9.72974414051244,0.952756526388431,-0.538021330604391,STAIR_UP
0.13,0.0937433654275748,0.0057659553394191,-0.0266825207446774,9.55598249738601,-0.0083941046700939,-2.11596999031278,0.0281747691823948,-0.0015796947939812,-0.0296318455742658,9.38122941438883,0.235589535507478,-2.58418641453391,0.129562064067605,-0.0477379347829856,-0.0163811645891312,9.69964135828616,0.949544079590521,-0.498047843426056,STAIR_UP
0.14,0.0923120381940291,0.0032855078527588,-0.0243920039630252,9.55195246141007,-0.0623708324867515,-2.09114636871438,0.0518666219079538,-0.01322753773844,-0.0370216670736228,9.31310781460897,0.241185629564291,-2.67386263427055,0.1362569303243,-0.048494438662133,-0.0192635559373561,9.62583694495475,0.919752578190788,-0.489218085577961,STAIR_UP
0.15,0.0736512921216915,0.0018498052303435,-0.0230365605342725,9.59090290191845,-0.0898723768447613,-1.97595989675527,0.0717338821798904,-0.0278931940768914,-0.0419768137541334,9.33820276253253,0.252732940273859,-2.654978321127,0.134334147567722,-0.0496156836098435,-0.0204843040754988,9.62541258490957,0.920999671543886,-0.495185140923719,STAIR_UP
0.16,0.0699874440687896,-0.0084939507907036,-0.0240271401770873,9.54950586310317,-0.0476046611580792,-1.98845425593473,0.082731166884557,-0.0224210994236787,-0.0371795389684013,9.4395343727217,0.161092841717784,-2.59816554735402,0.143958884109734,-0.0500774960432186,-0.031850571445117,9.67440540639498,0.876624686900756,-0.4733113086819,STAIR_UP
0.17,0.0756810353222746,-0.0140576859265188,-0.0315949490076431,9.61443276267112,0.0056910035206158,-2.08191442539043,0.102946559143116,-0.0083822199899821,-0.0373508124129726,9.49055725982149,0.181351656753424,-2.55792532111734,0.147241163946016,-0.0529418859058411,-0.0436288844921751,9.64423611557664,0.875553089143862,-0.433874956215539,STAIR_UP
0.18,0.084333822339709,-0.0063651038363535,-0.030291774120408,9.60519334292374,0.0214897196387709,-2.00374888048866,0.107833820397831,-0.0030032608857809,-0.0354376274245089,9.46782715486566,0.281388712391332,-2.60506309401317,0.150083613123814,-0.0526960511469176,-0.0499592725075221,9.71809156749565,0.860560672690517,-0.432846775497808,STAIR_UP
0.19,0.0878750817199615,-0.0035309568963313,-0.0350698952232493,9.61166722370395,0.0220810747713152,-1.98074702443066,0.104500097018687,0.0018439909542887,-0.036251250287053,9.52602147220268,0.35588767631291,-2.54017933589937,0.150132588025999,-0.0516263220214845,-0.0488592448479141,9.81760308048559,0.898465885815562,-0.475875172290779,STAIR_UP
0.2,0.0949958815143604,0.0019119763502514,-0.0380444089833821,9.58024330662431,-0.0728026253182151,-2.10216820015598,0.106599312777862,0.0045299960615129,-0.0407993648184222,9.48499370706333,0.337933559100683,-2.50954771405267,0.154990805411496,-0.0448645499943219,-0.0527930705620843,9.83985780529938,0.954230633253447,-0.50191082248036,STAIR_UP
0.21,0.0983330056547367,0.0056198889245155,-0.0372750052140533,9.56667338704995,-0.0924268763501193,-2.17470340720018,0.0948020446388626,-0.0078087822437928,-0.0412024728387775,9.48091420872035,0.447787740501924,-2.58420294522989,0.154936201140113,-0.0297994709715854,-0.0482017760894566,9.88756560156831,0.962159685264811,-0.501621724023563,STAIR_UP
0.22,0.0867588816456253,0.0094665182636887,-0.0344862668794259,9.5800276648275,-0.0925043963617722,-2.1268987208803,0.0822102728818571,-0.0004177021166009,-0.0435260213801751,9.4898692051269,0.481352533336473,-2.61123913575879,0.154522064634037,-0.0180455319050661,-0.0404542467492317,9.883063052734,1.0144094945686,-0.504039021528911,STAIR_UP
0.23,0.0919697371774338,0.0222908702449893,-0.0358634159293366,9.61217721576958,-0.099361482647056,-2.2105326406381,0.069736725294835,0.0002296996363706,-0.0326814339505255,9.38357359917477,0.629673041227603,-2.72082410522173,0.145244403313281,-0.0120922213160175,-0.0300552825435525,9.82896282225626,1.01154306301868,-0.463957289395202,STAIR_UP
0.24,0.109921771817777,0.0189460400660388,-0.0285192483878916,9.54656900870248,-0.155056639035948,-2.31845997892216,0.0602572762187242,-0.0116167583682542,-0.0354309708242092,9.28334918772249,0.661334551949357,-2.58422815545758,0.127864638677064,-0.0139350818159546,-0.0256367419257188,9.78158703985388,0.960313217114648,-0.449067833366209,STAIR_UP
0.25,0.103971734513941,0.0093344584809235,-0.0280373183892999,9.51954617470371,-0.0692795278197479,-2.230764679119,0.0512335313586701,-0.0123985521688151,-0.0314718845790438,9.36846362508468,0.646781462175111,-2.59797180216864,0.129403122828734,-0.0107414244041802,-0.0179358213854793,9.74221440799811,0.911049619813035,-0.506655968780413,STAIR_UP
0.26,0.102697647996048,-0.001896878332973,-0.0260357345424981,9.47252679922236,0.0185672182416578,-2.21476540808426,0.023631669320801,-0.0115051790969573,-0.0228214959929988,9.41200072626906,0.535818823456849,-2.62925789819964,0.131868148766163,-0.0062820691829209,-0.0199020233070423,9.6909862607583,0.907573972561886,-0.489800517915824,STAIR_UP
0.27,0.107040471434443,-0.0101562554243543,-0.02469418429804,9.49106878334301,0.0112425182355371,-2.34755876331639,0.0040294526792945,-0.0188110661537455,-0.0247704626414383,9.40759144297286,0.405765921296,-2.67818491533917,0.134370478096365,-0.0072136115207628,-0.0230263752472295,9.71293919644342,0.935260651886158,-0.488420550169999,STAIR_UP
0.28,0.0979751161807137,-0.016011301746421,-0.0170627215861618,9.53317817244171,0.0155386991260291,-2.28447838536553,0.0008924354514282,-0.0106869746094457,-0.0178370075992719,9.44630363004891,0.325976220869131,-2.83247076118552,0.137285712794032,-0.0080724543718241,-0.0304531416876557,9.70800633842823,0.960778893283453,-0.465650845873134,STAIR_UP
0.29,0.0828293188889735,-0.0149822287810855,-0.0094896837980127,9.49788686725351,0.0552843676149913,-2.27520863330466,0.0295072197409216,0.0028707878692116,-0.0142853392448096,9.39537746199221,0.384835237747363,-2.82611269210842,0.129156332369764,-0.0018778708591988,-0.0329859092002226,9.80705846472243,0.971769105487755,-0.48096182500218,STAIR_UP
0.3,0.0606918088631345,-0.003669082912917,-0.0094454111547567,9.54873121200931,0.0210568876450111,-2.31657253339074,0.0520667083345185,0.0086024809467115,-0.0147846830558592,9.38030339106092,0.375988850088134,-2.77408077789735,0.114678534578856,0.0083820825117066,-0.0358195721714573,9.87787037050477,1.02978863118851,-0.49713823958388,STAIR_UP
0.31,0.041483821394108,0.0126380523643322,-0.0162435903871076,9.50909734894803,-0.0384127309050945,-2.33176893688754,0.0683291036791215,0.0152887954110152,-0.019233962161258,9.47711933535951,0.306404663155367,-2.68772072385818,0.104027199947451,0.0187425974125561,-0.0341223731840156,9.8767281212621,1.10698131144847,-0.544149762581008,STAIR_UP
0.32,0.0351869231141615,0.0041149205547825,-0.0167415253540152,9.4894719450931,-0.138585871342006,-2.12483948661364,0.0569130577202109,0.0250948520831772,-0.0194178035930303,9.4429829375047,0.396646005561511,-2.65740491099508,0.0999943453826722,0.0240002196955446,-0.0353695013180292,9.86972663013127,1.1578778317598,-0.518089140544857,STAIR_UP
0.33,0.0422544297625179,-0.0146736764634596,-0.0182546874350943,9.55450930683045,-0.12630610940073,-2.06718043005087,0.0601902404952633,0.024578226754249,-0.0097282347791734,9.44285320582362,0.504827090207812,-2.70591431679996,0.076851548356331,0.0349598320385832,-0.0376067041153412,9.8210899211651,1.15701860206235,-0.521578354369134,STAIR_UP
0.34,0.0387969673574179,-0.0176690402414898,-0.0068849194798879,9.54282190047298,-0.0328624113498635,-2.01274903100781,0.0722213298136648,0.027015616424118,-0.0061779912801745,9.41620382025804,0.540395356960106,-2.60167918724238,0.0637911334505041,0.0430308818288512,-0.0339184177436737,9.76602774984183,1.10512057604514,-0.427642338201663,STAIR_UP
0.35,0.0491702219911116,-0.0164295661891431,-0.001667071789971,9.55630510850161,0.0512481111261744,-2.06714882135678,0.0850063969458018,0.02628756468503,-0.0016056088851279,9.3950328559077,0.474984241980498,-2.57086430389671,0.0466737569125791,0.0433930739239786,-0.0337785239648091,9.74047488326974,1.05636126926871,-0.378924066146939,STAIR_UP
0.36,0.0394293949714323,-0.0036591160705668,0.005518928931369,9.4859206356982,0.170732582225326,-2.19810533583874,0.0837676826227599,0.0260789872797368,-0.0081502684856756,9.44302327504389,0.415148109504873,-2.59941085085279,0.0485208777844263,0.0520827036486153,-0.0292683685690075,9.75518842812273,1.01288674139381,-0.472502508872498,STAIR_UP
0.37,0.0234781393125352,0.0083200426801551,0.0113282754107427,9.48507229365825,0.315944312326964,-2.14394210949259,0.0916011419367735,0.029895476482898,-0.0087054805285496,9.46591808632008,0.423252673985285,-2.60047536489705,0.0527416519401405,0.0630567666444812,-0.0267701931559857,9.80143747176783,1.0437819366753,-0.461616313400331,STAIR_UP
0.38,-0.0085384666851974,0.0082359977322548,0.0178796319664999,9.52342730541063,0.242358824615079,-2.07926618724226,0.0947702801921137,0.0504196062821307,-0.0088152896835928,9.565280615176,0.437553572398393,-2.61143098502306,0.0588046191592903,0.0751627524671529,-0.0209158825149682,9.83466757636849,0.97548853686353,-0.477879649483994,STAIR_UP
0.39,-0.0185357764147115,0.0056663868902175,0.0224623019709435,9.54627141233227,0.0544214648605717,-2.19021284014117,0.103499419595234,0.0786583633587179,-0.0004649610873426,9.60227090500416,0.554830048979036,-2.56354193318384,0.0586246862234625,0.0902630830909726,-0.0164703521669142,9.83760390412456,0.977580289163757,-0.494573792568659,STAIR_UP
0.4,-0.0337222778900877,0.0066484942923421,0.0322462911563542,9.56875897569285,-0.1964024007273,-2.17575301518278,0.109971952110203,0.113036492216836,0.0124774124547382,9.50025726097864,0.558569386453301,-2.51559564571184,0.0445223798228199,0.107922126540036,-0.0008990785531338,9.88779177477405,0.933129917260366,-0.456072323556987,STAIR_UP
0.41,-0.0173142349348444,-0.0069099283919574,0.0450079182997615,9.53986921060731,-0.182485790734078,-2.16738468549399,0.100286481036713,0.1275538876587,0.0231552671443174,9.38928811024977,0.583799943860792,-2.46466097756196,0.0395225777671143,0.119533973084052,0.0086417568842253,9.86695435749058,0.931010942864472,-0.472280558667513,STAIR_UP
0.42,-0.006652131933806,0.0096055579313719,0.0550229015396216,9.51461535124911,-0.178433512064989,-2.05860867354382,0.108240779046078,0.148994484314985,0.0358894088923578,9.46646039344647,0.554194687281016,-2.38804246979325,0.0336728387118859,0.123481199736115,0.0256396440316763,9.85052097523152,0.878950964866635,-0.488235911956517,STAIR_UP
0.43,-0.0367452963913596,0.043058729767408,0.0512880149420602,9.53792437668319,-0.346264547676041,-2.14220780735627,0.116102572706762,0.154963320951123,0.0485607312231153,9.53080055839132,0.59916721197218,-2.3590790329609,0.0291859018917113,0.131917763328056,0.0297658231736302,9.77890527353771,0.869929258123393,-0.484543127360749,STAIR_UP
0.44,-0.0333705075376121,0.0466496883395121,0.0564246345658314,9.39326670641059,-0.294583889374596,-2.3243716808827,0.118423371997035,0.153204600037889,0.0527673877899175,9.57331291518078,0.418034085145791,-2.22308583848929,0.0082938238436617,0.134314024517254,0.0252995407565546,9.75196771972546,0.839809856242121,-0.426351627394919,STAIR_UP
0.45,-0.0006473170634085,0.0441433258060871,0.0651022131904062,9.33509180664239,0.213851873445412,-2.29193469552667,0.116616340819961,0.159439697432259,0.0550707419288252,9.66278104702769,0.339989107859247,-2.1937846069753,0.0014969860365822,0.135237072775499,0.0086679579280909,9.78055490277079,0.865463031494759,-0.458549148261158,STAIR_UP
0.46,-0.0204217460338057,0.0301454023182031,0.0783432609191703,9.32169816387304,0.648353420373875,-2.17281336900879,0.122410003079677,0.16721616846409,0.0634638847192607,9.63766726868618,0.242746335663794,-2.27085384530849,0.005225077464285,0.133347361712406,-0.0062714593624929,9.86413621679539,0.9225076322486,-0.557235667730258,STAIR_UP
0.47,-0.0744520263187636,0.0248602595857819,0.0898626663897647,9.46861138482305,0.834066964162204,-2.20584935847317,0.139598072586029,0.177305508567714,0.082104257550973,9.57477242093018,0.150511763603351,-2.21896813016194,-0.0043005330431609,0.130868853366747,-0.0176953502455367,9.85279767302509,0.849643521552296,-0.596354764507324,STAIR_UP
0.48,-0.122667911331866,0.0218998229346869,0.0863710100403755,9.66351874605886,0.791995862475417,-2.10541659254424,0.145317941909343,0.182865556145066,0.0993070916522803,9.30565117810898,0.131417926683647,-2.26492843759782,-0.0184249632064503,0.140058247952999,-0.0239144487091685,9.79640314669164,0.772264878268279,-0.468545633302989,STAIR_UP
0.49,-0.167132140036846,0.0378784075282183,0.0906231175883229,9.7617902323834,0.438239908508431,-1.90952102849687,0.188590127850386,0.170633608172425,0.0996739511123719,9.3639655639142,0.193117244249187,-2.20854869685235,-0.0552096382966358,0.154833606765282,-0.0380111810012285,9.75868342954698,0.721788734495343,-0.312040557073388,STAIR_UP
0.5,-0.191103245483596,0.0574816302833628,0.0999186192574406,9.87425687195023,0.168436718075976,-1.76508181553004,0.215118775574421,0.182553428023293,0.0911928384924412,9.49831329869409,0.284969356714578,-2.08896644409797,-0.0709761387008914,0.167227852031247,-0.0475774520239272,9.74624165372829,0.62732466181431,-0.324184762844257,STAIR_UP
0.51,-0.172866372050188,0.0785228428299674,0.0992290347896827,9.93282721382948,-0.0366809395971037,-1.65331565750084,0.225960665962103,0.20232882714846,0.0859072162009184,9.56369219901144,0.377048239364768,-2.0823752673849,-0.0824637369701525,0.183044906273843,-0.0557712170971079,9.71935659560051,0.555971122754171,-0.2379490400181,STAIR_UP
0.52,-0.141910445924998,0.0994413933198067,0.0858923324268698,9.90534463235548,-0.172235744691187,-1.69148474391997,0.241585395978768,0.205369200116183,0.0737537424646003,9.54196501750865,0.592851459957067,-2.14251460933193,-0.0884161408003208,0.188225326038911,-0.0572069545370664,9.7584437546765,0.467573956673494,-0.265754687387921,STAIR_UP
0.53,-0.06734555370138,0.10731206728922,0.0740587784420463,9.70679542733521,-0.162824931573289,-1.82868687761052,0.278782775386579,0.193954381542746,0.0614179170327903,9.50340608270333,0.747982900195852,-2.12618901743172,-0.0789093788542085,0.190871291559864,-0.063060289169187,9.76403905400876,0.375808638049054,-0.223853910125891,STAIR_UP
0.54,-0.0281382050797428,0.111943308386817,0.0547585778181949,9.57622682810773,-0.0284992678060549,-1.7771481750881,0.258854847031885,0.185506099835071,0.0582203915203083,9.56436037017033,0.813979087282064,-2.24297878811841,-0.063294222450734,0.186199699173948,-0.0674792383396388,9.73442276897921,0.28265416652985,-0.285566994794043,STAIR_UP
0.55,0.024988689873801,0.120319050429947,0.0425677314290206,9.4548396260446,0.069086510304251,-1.83020520428348,0.200066555015158,0.156166388140781,0.0620774004193811,9.47158503487887,0.816188283131423,-2.3161795009618,-0.0334704536721795,0.168048063832309,-0.0677989372625702,9.72380943863267,0.289699761958913,-0.368254773488754,STAIR_UP
0.56,0.107655146331798,0.112657657078865,0.032579320153761,9.37834789202828,0.133599120627067,-1.94743127950835,0.1636193675689,0.0981867648510625,0.0604755639860218,9.47685465686429,0.753962411655362,-2.25428277823545,0.0070537429518973,0.154702027714971,-0.0673121377220835,9.77268322169256,0.253530536294837,-0.494847443078519,STAIR_UP
0.57,0.16038545252385,0.114752816269819,0.0411255418728607,9.4484624830585,0.246972438579066,-1.9512481074812,0.122018666261869,0.0381483298892186,0.062584487199748,9.52165588828843,0.498511764977252,-2.29162038478054,0.0349872252057595,0.137406485626394,-0.0514656998028916,9.78335005967926,0.261074694688123,-0.553145777343645,STAIR_UP
0.58,0.168615313194649,0.125215560364273,0.054638490879249,9.64434597602661,0.319890126075768,-2.01482492442655,0.0849571005573025,-0.0087568721598089,0.0720195801036465,9.56709309252763,0.428958533956518,-2.34218133418677,0.0564067473761324,0.131708167140551,-0.0326954766744438,9.8892964234812,0.250490598338482,-0.574965211538876,STAIR_UP
0.59,0.191103247729083,0.121299081903731,0.0603529044959972,9.59477398319662,0.5459715777325,-1.9573013123385,0.0829927933240375,-0.0422005718531056,0.0725417463348749,9.46403609649957,0.351447005756303,-2.32993265090398,0.0601302591097245,0.134903356595439,-0.0075024341644162,9.98301624642527,0.334346545114282,-0.571368603192913,STAIR_UP
0.6,0.188893393298804,0.114127501667077,0.0691575981363493,9.62325357414375,0.579276514130412,-1.80106799100417,0.134612639520984,-0.0562741354689435,0.0717119905768355,9.43177629281947,0.434524697885263,-2.4835006153592,0.0577515484651152,0.14001886015638,0.0151074844496136,9.94264967698011,0.402665114195701,-0.488086924697225,STAIR_UP
0.61,0.135703862745486,0.114770697873469,0.0770648604154749,9.67270155765944,0.527026772035394,-1.75398664772656,0.191614411874865,-0.0274269077122208,0.0721511781229456,9.494961386297,0.555023929433549,-2.6005726153675,0.0385364132875943,0.153052107741187,0.0365652045314519,9.9433320313142,0.472143258589083,-0.348660781213614,STAIR_UP
0.62,0.0914076158713926,0.122186714538749,0.0807235459541937,9.54176272307081,0.465438052923568,-1.81043449219299,0.225876203625339,0.0091700342701517,0.081555415343598,9.53073758867236,0.584192868838728,-2.41201507618595,0.0100303659382018,0.164696254918951,0.045403095532723,9.8879868976598,0.511738320842371,-0.315508984368421,STAIR_UP
0.63,0.0789536669136762,0.11272464535226,0.0875000067168055,9.47154197555937,0.45259986880742,-1.67974569425258,0.220756359930743,0.0160151535904354,0.0916305297326043,9.5651865340671,0.76925072238847,-2.35298947975022,-0.0261854728707719,0.172820039997085,0.0460370113030937,9.80364134195434,0.523446248621037,-0.236967927683381,STAIR_UP
0.64,0.0546122710555856,0.116887869524485,0.102742867365389,9.62496663972966,0.670768851339548,-1.55141227640199,0.229466618852933,-0.0098986362634571,0.0881461983090296,9.47789254482785,0.851624925979789,-2.32507939223514,-0.047534705033828,0.181752872003378,0.0304273761655944,9.77581077415691,0.566274593719327,-0.222577211846881,STAIR_UP
0.65,0.0490561386089617,0.157716942807127,0.106759258833522,9.80157309406588,0.770471481058731,-1.45463478327772,0.213583421890001,-0.0183271170551188,0.099154933510168,9.49541981606731,0.737131771423417,-2.4966899055183,-0.0590160954090773,0.188907537359209,0.0220284052020736,9.782213839573,0.540086287665256,-0.228536036342265,STAIR_UP
0.66,0.0671812090044273,0.180547928849823,0.114960547034894,9.6702185369183,0.829509823815152,-1.17534153231379,0.223616590431944,-0.0316613037230013,0.107519654160609,9.33406043165635,0.708499056446318,-2.55496466749236,-0.0927189495664738,0.185298929059103,0.0172397560957863,9.73706557544496,0.483423486018352,-0.0452441850932225,STAIR_UP
0.67,0.0656285883519857,0.17913471089514,0.118371235895128,9.71672136315234,0.905895515161842,-0.890262146185253,0.231119792400841,-0.0918942932207959,0.108156251889543,9.32271827131648,0.662498913738463,-2.53456835356006,-0.123593123412715,0.186194008049948,0.008343125050182,9.71317027524375,0.480104207949347,-0.0304356634735356,STAIR_UP
0.68,0.0585332134613691,0.200869213135982,0.131851440972429,9.89512220405427,0.909388857599685,-0.563707605545844,0.23132953406159,-0.0916523921297407,0.119078680636658,9.44511997524922,0.562341626493098,-2.65232481512251,-0.140463019153338,0.186553003603419,0.0080936923541099,9.73888935695362,0.506404398246597,-0.0316463681387761,STAIR_UP
0.69,0.018410113338415,0.236189198731205,0.140947837867762,10.0043376074396,0.963245547577095,-0.139624391049282,0.219707906501831,-0.0603974004035998,0.141113373358577,9.33582116751004,0.657284815445584,-2.72947994037483,-0.154684768022907,0.193553685584861,0.0059388295847426,9.79675396261114,0.583615888670561,0.0485286357495318,STAIR_UP
0.7,-0.0390233050190158,0.300341169036948,0.139693505984566,10.0944033730914,0.986995591331632,0.294011508451976,0.213714374996918,-0.0844998469699366,0.149691681843011,9.16670282520108,1.01487119510297,-2.86693733065373,-0.177856627226576,0.212009724873652,0.0107627758893969,9.79510917107343,0.604744766098421,0.218231134755821,STAIR_UP
0.71,-0.127603216337674,0.399101811911744,0.135302570992858,10.2737544314756,1.00240116256155,0.789947853320522,0.206371791469091,-0.0516705856339391,0.154840670087502,9.25285090710033,1.21542498600947,-2.77817465841484,-0.198713792652469,0.232739937549559,0.0157894764785768,9.73918586323015,0.547915148036204,0.304534443584101,STAIR_UP
0.72,-0.279930740081684,0.528877989098009,0.11384964035527,10.380777398547,1.16233190025941,1.16976118225672,0.196272329130477,-0.0305699540224242,0.151633056838042,9.33367069232856,0.916231860879182,-2.62571873867919,-0.21728755304109,0.243864504276087,0.017622603324355,9.5363748759791,0.548914283890433,0.49342389883552,STAIR_UP
0.73,-0.422419616986166,0.669970785849943,0.0791452052981887,10.4717480254542,1.11613900304078,1.28771205887926,0.196642904062154,-0.0291158249453571,0.163619291918835,9.49989801867511,0.729110256245766,-2.48988220765678,-0.254272093300967,0.234617996827653,0.0241145242703693,9.35698508891758,0.501222336399182,0.708744077105024,STAIR_UP
0.74,-0.459343898760561,0.813876687119776,0.0422501187822505,10.4420597326208,1.01596504553719,1.17145567962795,0.188655927543598,-0.0523949175249368,0.173514133374327,9.39626488132101,0.641948305813607,-2.47739438742141,-0.296832338246643,0.21957767759879,0.0397405146454468,9.25474767705649,0.483562494323612,0.887113148546416,STAIR_UP
0.75,-0.431088603997057,0.958634348058034,0.015905344652304,10.4277175331508,0.794274279398431,1.11082204199798,0.183322640592994,-0.0967460516090115,0.158509516769198,9.36291347454912,0.657753633443984,-2.60775832187601,-0.331871456437504,0.164549101479351,0.0672136899512848,9.22717097663272,0.498095705934742,0.9028071615557,STAIR_UP
0.76,-0.36749183993241,1.06328214811094,0.0067607177553646,10.3808716781709,0.494394634621282,1.31343205992805,0.200576267989294,-0.136937907887904,0.141871479148789,9.68857164817885,0.738813843464886,-2.64396833368574,-0.353970557992978,0.102223540555928,0.107495450265529,9.30912561552206,0.553905601073649,0.562182757577034,STAIR_UP
0.77,-0.30434779896408,1.123871039681,0.0052823020023087,10.3902030691717,0.472571431469503,1.39815364844071,0.185048414766176,-0.133218278504995,0.142774768336191,9.7061346378425,0.800170073855094,-2.84036661825716,-0.366984395334514,0.068309890643406,0.153356474494623,9.34252651985221,0.72793044549095,0.165233298976871,STAIR_UP
0.78,-0.246642173020272,1.1590081322635,0.0256054348582908,10.8268163983927,0.677862057786155,1.49583745676408,0.162370260993307,-0.130918910923778,0.139840520593642,9.37799310298772,0.807852581005778,-3.01293449342538,-0.365124487266694,0.0306290467436682,0.198218222387782,9.37264396145177,1.01326116024354,0.0196342087167891,STAIR_UP
0.79,-0.170843207126864,1.21042831023447,0.0485746814100772,11.6370845465913,1.13381615349946,1.48427723277288,0.103981300240335,-0.146349993623109,0.131211823318097,9.00635397370731,0.548535184008383,-2.93434760614147,-0.308580781226227,-0.0153942583818261,0.225988948609688,9.58032627516493,1.26143875464044,-0.123745956264269,STAIR_UP
0.8,-0.102518226688805,1.26240831671323,0.0605480028736742,12.6035581359083,1.65471055552594,1.45390187335197,0.0598700908967452,-0.206054113244023,0.135060373405227,8.62463959123768,0.0142410829515453,-3.22768382058985,-0.27074070853236,0.0031214499611396,0.240619634647188,9.82506771328196,1.36337377189288,-0.26944249121977,STAIR_UP
0.81,-0.081644604817665,1.32493562203986,0.073352026880624,13.4568756072486,1.73348901796417,1.27576666496242,0.0896477111194841,-0.247406833019336,0.152774663626515,8.56742317359676,-1.14394584731168,-3.26597863313968,-0.285302557644782,0.0779160888626917,0.222806578109751,10.0902025227095,1.2407503418754,-0.295795322333393,STAIR_UP
0.82,-0.121620720374391,1.46769805833167,0.0416501990723322,14.2728747324525,1.75133220085425,1.72884135826624,0.100240320274547,-0.271923332749205,0.152646999254892,8.68828910143693,-1.69978828495287,-3.70326908618016,-0.306740012458541,0.171507341274631,0.184378001707314,10.2701418926863,0.904239444378771,-0.044137187232056,STAIR_UP
0.83,-0.248582963309356,1.68482399559665,-0.0550228599745737,15.0687453902655,1.80162665662271,2.50628983056891,0.170825158072618,-0.25362220760343,0.154314274216329,8.89485583575994,-1.50332789561808,-3.67403160645667,-0.27154597741341,0.196932647989794,0.137288158473277,10.4075544018599,0.487698437935454,0.323857880113145,STAIR_UP
0.84,-0.447589312801676,1.84439538566151,-0.163657069810583,15.0597256256079,2.10621426398762,3.25898660972026,0.292295886683578,-0.205219308668424,0.158660217686701,9.26153691636501,-1.31352128969999,-3.19396476202035,-0.22912952102497,0.200401674581177,0.0718329979693226,10.654191990873,0.269070400301014,0.426654415462574,STAIR_UP
0.85,-0.631750407097512,1.86573766528953,-0.255972233856439,14.531575619491,2.05255179541965,3.58021492897775,0.378704350478041,-0.162580168476192,0.149204245470595,9.47193333633828,-1.03983423254492,-2.99319258422947,-0.193997282055647,0.20880058982956,0.0156654283439718,10.761608513468,0.224188836836435,0.416538267556359,STAIR_UP
0.86,-0.767870964231094,1.84629304411613,-0.32052379317622,14.3297186179447,1.5673784880487,3.14846270235661,0.402278747669541,-0.124573037662208,0.142538455666914,9.68669620280268,-0.793693566155733,-2.83792975298336,-0.13283367568556,0.224198093972832,-0.0269563423766369,10.7377269682854,0.397902719005969,0.373625487524544,STAIR_UP
0.87,-0.810904279573265,1.83321528957001,-0.33043298247162,14.2452696239238,1.08514469062389,2.20806253165552,0.400929618188392,-0.0862426887578051,0.146587497316576,9.68086679524383,-0.647954891546426,-2.51476796948244,-0.0546091062238748,0.224764107594875,-0.0618614855842431,10.4756584911272,0.736564545737056,0.223331238211859,STAIR_UP
0.88,-0.867731822118572,1.861239794947,-0.371649548768356,13.5235010545987,1.28427188978909,1.21054780310653,0.378146082264839,-0.0827133834448549,0.144856656051628,9.65991553998999,-0.768319776428601,-2.23476444854487,0.0330792081563803,0.223272259692502,-0.08933319733872,10.0573109860815,0.989572868520473,0.134732767506526,STAIR_UP
0.89,-0.922648901913716,1.88115177313296,-0.438987234437434,12.8618225745418,1.40595162679982,0.479390176708989,0.279384787151031,-0.0793390290113963,0.142853529394654,9.63563791133612,-0.846362496215764,-2.18111029602681,0.0914122625340366,0.207457756076574,-0.107000972738012,9.73367267306629,1.25744822241391,-0.0626909442867956,STAIR_UP
0.9,-1.03698721543355,1.90536505870948,-0.483459530892503,12.2394472889659,1.3463765029072,0.200183641405627,0.179339204102965,-0.102857826842281,0.158670182766182,9.56431427668602,-0.628632923869213,-1.68237788458155,0.106631032301362,0.199514918577148,-0.112291026205644,9.54045126158346,1.39443839503965,-0.37204443154985,STAIR_UP
0.91,-1.21658907787564,1.96049239335101,-0.535588655170967,11.764047801366,1.29999999217936,0.20286693543865,0.0451678815821764,-0.140960951192246,0.175871028575626,9.2661628779694,-0.547761236083695,-1.26235637649439,0.11986360179518,0.18354282601413,-0.106073991202422,9.42282419851088,1.5541780749508,-0.567491074863566,STAIR_UP
0.92,-1.41155678710686,1.98315593093853,-0.571567039018396,11.8810134481968,0.890927366507098,0.199673580500493,-0.13872775995844,-0.211679194047109,0.169047817194267,9.10955271196268,-0.408990888133779,-1.24762259588936,0.131361377457798,0.181518558241634,-0.0963169307404238,9.37728632994031,1.71055854985239,-0.625818851865526,STAIR_UP
0.93,-1.57691977262586,1.93487866925503,-0.57731428009217,12.491837951108,0.0372469306376761,0.45393766999474,-0.298173602363642,-0.260151902484978,0.142783267792294,9.214774113783,-0.490742293769204,-1.3787487392802,0.11300837290326,0.190584655738737,-0.0946405049611779,9.5350443143255,1.77734604275709,-0.549539075565467,STAIR_UP
0.94,-1.65678022278941,2.04718569833346,-0.633222984373725,12.9836985719892,-0.746207594108865,1.27983037925376,-0.424609403253649,-0.277496593619247,0.117945919483382,9.61185751750846,-0.536941933193508,-1.43989368023805,0.0778642415930887,0.19307111922442,-0.112259683168512,9.92015889776006,1.77156632281668,-0.580206522295631,STAIR_UP
0.95,-1.74523764414196,2.24721161613197,-0.692627520554427,13.4212297236019,-1.16866157935046,1.80851221168581,-0.491454155942674,-0.295717244345417,0.0879343391963146,9.80256110074153,-1.20465866401496,-1.65923159316694,0.0594280663390754,0.181575143370059,-0.150334130783839,10.4238287492069,1.69097163711142,-0.315464668416699,STAIR_UP
0.96,-1.85520005051472,2.48806747894362,-0.673090023031708,13.6018402834721,-0.7540441490477,2.28335218723963,-0.506543402346618,-0.312796627623182,0.0543717469929104,10.135104245538,-1.99829994427832,-1.92447892777784,0.050532826288065,0.168934992457681,-0.211367633158525,10.8315002138295,1.66059366109938,-0.0914747037647196,STAIR_UP
0.97,-1.75899523802628,2.63761786055423,-0.623366067403597,12.8886987226676,-0.216057847451417,2.52276165575135,-0.441096067564435,-0.273997872117649,0.061298277349768,10.1630964678449,-2.53020319081436,-2.07090700443465,0.0653424234853911,0.161572922125018,-0.271967211325562,10.9707940615337,1.65372246439417,-0.146846377096626,STAIR_UP
0.98,-1.46474632621547,2.65201718830335,-0.51446692186786,12.2125879866617,-0.284829577952845,2.77336868869833,-0.337289620268386,-0.227757292125627,0.0591351292649077,10.0146293534138,-2.58221064536272,-2.25152923433201,0.103633113928806,0.182439003196766,-0.3347203071173,10.7323925150516,1.71347029108664,-0.101743985780854,STAIR_UP
0.99,-1.24485905404612,2.66076173000774,-0.410988457224098,11.7361010125486,-0.713178105005012,3.12353835867501,-0.220964880281025,-0.179423222176665,0.0536478270112102,9.74219446615835,-2.1592292796759,-2.34259653580985,0.151463571756174,0.224982136858887,-0.378459908751879,10.3733284148565,1.71725933250946,-0.0592996987894693,STAIR_UP
1,-1.13587146670968,2.66339771216981,-0.346953118472334,11.4582059423604,-1.32992157736725,3.23423603862686,-0.14863381709203,-0.135286533297473,0.0490732793723395,9.48205256647079,-1.52560549355626,-2.39337198918928,0.175291615391697,0.254518064743824,-0.419694540607634,9.97980802156961,1.63744642087213,0.172036517947867,STAIR_UP
1.01,-0.993812150176338,2.62712742669376,-0.356293878044437,11.0063283668831,-2.05349465700834,2.79197846645828,-0.161185424601672,-0.110141967321191,0.0418906491629184,9.18409877065631,-0.98271924984275,-2.39865823963768,0.189006463107802,0.252412068948464,-0.432465967941085,9.65101046486382,1.54271526517912,0.340963458708364,STAIR_UP
1.02,-0.779124327914662,2.61233963224108,-0.416247142188255,10.283364080891,-2.43158084501675,2.61453909094566,-0.240249576363693,-0.152713133620961,0.0238513599600343,9.25179695936931,-0.490928822212672,-2.51249693266148,0.188293118123004,0.20338398316446,-0.424128392980391,9.33163240220883,1.44680790285178,-0.0927551274680264,STAIR_UP
1.03,-0.526427518479828,2.54809254626976,-0.485933110327166,9.40779899825514,-2.56746088114215,2.9484425346898,-0.33784065099274,-0.173649106741874,0.0334036302398172,9.24235950042921,0.288981172989446,-2.51060667441702,0.205955936850555,0.158083311251821,-0.397317298859918,9.2076451949565,1.31079045135334,-0.366313838459567,STAIR_UP
1.04,-0.340103718580014,2.46453582010479,-0.564883793982594,8.75864154641602,-2.42580852666457,2.8380920886852,-0.445390542171571,-0.24159969753358,0.0349083482804048,9.0410776326351,0.795440727630804,-2.62763153570373,0.175641723929982,0.136256419612757,-0.368653350359065,9.08449364212186,1.35355074567131,-0.280885212891659,STAIR_UP
1.05,-0.24490414910433,2.45464662338288,-0.616088768526645,8.72645461724679,-1.62191431767847,2.10543980724272,-0.606783154731766,-0.303493273832555,0.0346352820252657,8.87899524620338,0.725518261533162,-2.51502670282173,0.167688259654784,0.12522037090586,-0.331786778523699,9.00328127032527,1.48321505451378,-0.53304746270296,STAIR_UP
1.06,-0.114166820399418,2.43760143482456,-0.603067742750475,8.53290790316067,-0.485182040140809,1.85094820710623,-0.724082941277922,-0.394362139897569,0.027009936339252,8.74002343351926,0.072243203950757,-2.5280806627406,0.163728278427592,0.139536158421533,-0.299301093483416,9.00814749342921,1.6632274437543,-0.637753389737903,STAIR_UP
1.07,0.0240762244433632,2.37675289233038,-0.56698420190929,8.084844255099,0.258864024966406,1.78715655688768,-0.802924097751995,-0.419202111517456,0.0321495422520327,8.90578710572383,-0.369850613723217,-2.37452034003802,0.110781725206214,0.141242044469568,-0.27153607274207,9.1650522624748,1.80295247686474,-0.509120135311482,STAIR_UP
1.08,0.0323365259483557,2.29740947749443,-0.526889602341549,7.33591260204903,0.617116644704918,1.84885879705654,-0.892065634342591,-0.452412161559052,0.0580287364032741,9.39662604291743,-0.537915369136594,-2.48158294938492,0.047250937680319,0.14578165226304,-0.25690101748617,9.33132659620885,1.95476631091556,-0.752091059658053,STAIR_UP
1.09,-0.0664820532677958,2.17413384073423,-0.47133025339258,6.97712663209418,0.831404065370553,2.01086774142413,-0.915765370991342,-0.481199986273272,0.070568707265105,9.3041785166041,-0.81313590797851,-2.40507374855594,0.0319517135117114,0.136933670884744,-0.242544141380292,9.34328686692091,2.11905459364942,-0.451750930087865,STAIR_UP
1.1,-0.193208992274597,2.03449574903647,-0.434374310181657,6.39148784378627,0.906326208096668,2.10384700876028,-0.931145999381214,-0.496466208981648,0.056841318509438,9.37560169861589,-0.949072129224627,-2.44669569679673,0.0089431942177021,0.119029826132412,-0.235808014940996,9.35127263237989,2.23832005426973,-0.33119357172157,STAIR_UP
1.11,-0.337272001364992,1.8628963113502,-0.404127612697304,5.73059892960909,0.66722143563166,2.09791451209058,-0.892236770220981,-0.472585382997147,0.0432685004386671,9.46130312093608,-0.934956826616832,-2.296677021483,-0.0150337783967283,0.118490337977351,-0.230985892504771,9.3386539239661,2.21434697333076,-0.47516064892915,STAIR_UP
1.12,-0.458780495347417,1.67872084192903,-0.366195058078247,5.51980339712231,0.367222632460081,1.78121452100234,-0.835905650748753,-0.459900645034866,0.0311433083296313,9.46235959769516,-0.910463798035179,-2.40137932814617,-0.0364508351975204,0.120310238884372,-0.228004978239917,9.37258707520538,2.24607505027965,-0.629638414596734,STAIR_UP
1.13,-0.515231397396703,1.55096888341983,-0.35277242118757,4.95808682127768,0.221523690834161,1.59456226025141,-0.7970326829216,-0.459084375441595,0.0273253227168899,9.40968740324526,-0.832737336299995,-2.4179532243622,-0.0581610761897006,0.12421445761271,-0.222845123771679,9.33706188566952,2.23724108483999,-0.576032881022872,STAIR_UP
1.14,-0.534219043444914,1.41436264310598,-0.319980368315131,4.50975857341282,0.184464510692277,1.60988626824285,-0.736275908842069,-0.446775066190297,0.0269012140768754,9.25603237797766,-0.480152252830634,-2.43127683877107,-0.0842407908944592,0.115605318920778,-0.208694599270382,9.29615065750224,2.13198544477476,-0.65518116925859,STAIR_UP
1.15,-0.569880943187572,1.23525163983669,-0.264820385325364,4.25157243161343,0.0474547625332697,1.58867694878246,-0.694148746483502,-0.437399242905459,0.0174681517529327,9.25343625178064,-0.124737557051934,-2.47130816500754,-0.127766381230683,0.110307810382325,-0.203073076588535,9.25921207638673,2.03348460508875,-0.959470066366332,STAIR_UP
1.16,-0.57926321542449,1.07203048067957,-0.233084644179958,4.36283348138141,0.485421199222625,1.81516414030883,-0.671464424685191,-0.43173039199178,0.0211387709625189,9.10121539069415,0.259850750271967,-2.29449494268871,-0.154332762322127,0.1018111180372,-0.197731941661165,9.1885902807993,1.94386118354722,-0.919761633823514,STAIR_UP
1.17,-0.672336721407997,0.924684887006474,-0.226553121253163,3.88097045784696,-0.0502386588928697,1.73103287935166,-0.693875534855478,-0.445643651785873,0.0127158777281819,8.96166432447194,0.168349649190848,-2.25489842310614,-0.166577725438567,0.0988415548737882,-0.199288909984778,9.24183703547148,1.91536955976226,-0.696256093092981,STAIR_UP
1.18,-0.707548721857358,0.743368867811805,-0.195353564179441,3.93042461895107,-0.275765585875823,2.07917168444687,-0.740062475768027,-0.476369064559569,-0.0113322766454929,9.36952376170454,-0.0852315802067927,-2.30662879481015,-0.197946404504927,0.0890706210251061,-0.202229380340021,9.35694066720848,1.94839159777325,-0.554372363134148,STAIR_UP
1.19,-0.717034936216119,0.671133121486148,-0.194168602334938,3.79923627724823,0.185094906224301,2.59101193967566,-0.809323004493863,-0.442611083905689,-0.0113201389758295,10.0113664599756,-0.365504386722375,-2.90388988700607,-0.206817408292743,0.0894456264948761,-0.197865687345702,9.37120684640668,2.11561579057639,-1.1057134127852,STAIR_UP
1.2,-0.676304813923297,0.530090250374871,-0.192446902051184,3.58836108341286,0.60986374119418,3.00791098397219,-0.827956288164451,-0.376014452219851,0.0186633503352089,9.79449993843741,-0.0779879305844518,-3.28489653189612,-0.172923701970805,0.134157932124342,-0.184919426167392,9.46680827686049,2.19723497992832,-1.01256189936232,STAIR_UP
1.21,-0.617950170859143,0.333538633959003,-0.18187188771797,3.6916322992186,0.262445221771405,3.32733089557835,-0.795343734026876,-0.395937541791137,0.0141212194943447,9.00357643009249,-0.0786834642396208,-3.37757221195239,-0.175362983287924,0.182645768979748,-0.169655859109204,9.60367751929138,2.13036880393872,-0.790544490683869,STAIR_UP
1.22,-0.56480405846151,0.166220095332535,-0.182098719609968,4.08852252587974,-0.368657050689594,3.56697656625716,-0.775416408958437,-0.464599474816093,-0.0082914194917306,8.67209186120101,-0.391619468789469,-3.61111645555453,-0.190320473234722,0.200648699989347,-0.151346518314635,9.7966652522496,2.05058011806186,-0.678234282266838,STAIR_UP
1.23,-0.41605691481246,0.0378988581332211,-0.194220312488952,4.45517946484929,-0.602994700535313,3.84034975073887,-0.778914570871689,-0.529066162323881,-0.0401140321090714,8.50705690265717,-0.357930989357792,-3.82030138653399,-0.191895193109457,0.180435614682454,-0.134753380683917,9.80991418133672,1.90209809887976,-0.816896577921072,STAIR_UP
1.24,-0.260755789577713,-0.0520932486049209,-0.209033901821322,4.66247388512703,-0.392530935055056,4.34762805562379,-0.77863437021682,-0.603082643804149,-0.0844509062359257,8.51630436618382,-0.494429370377525,-4.02141361571356,-0.192120392584393,0.13385450076635,-0.110123619876523,9.89243948872785,1.66034329008599,-0.874684615810823,STAIR_UP
1.25,-0.171398777156416,-0.138166485466717,-0.219262346275352,4.81451254845204,0.162406944137633,5.21244299668313,-0.745423048795911,-0.672306106847175,-0.144152708606165,9.1110131354893,-0.684117229982203,-4.22399884054727,-0.187440812862866,0.093510982568985,-0.0988949662205969,9.85471832194392,1.56695320262033,-0.853421048283293,STAIR_UP
1.26,-0.1823659431686,-0.247675162409302,-0.222217088188184,4.93726676554719,0.530685270206676,5.85751300663181,-0.695281376533509,-0.676273718797584,-0.172929689907803,9.74571140234866,-0.710065762605896,-4.23287136730357,-0.15746938395761,0.070265570682655,-0.083939732983583,9.91084450938082,1.5773129272964,-1.15678931923448,STAIR_UP
1.27,-0.273252559579036,-0.399730870373812,-0.216093126540193,5.3463646740438,0.795121846212686,5.89477452720211,-0.598140880321643,-0.659235230142108,-0.159875403742149,10.0221727426019,-0.526282669115132,-3.83955693831277,-0.137616746038939,0.101894697903995,-0.0694373885274581,10.0292823202862,1.70696132900697,-1.181114973743,STAIR_UP
1.28,-0.413985696105715,-0.554395113219128,-0.19848235227332,5.90347135792253,0.89532944548167,5.61301216000472,-0.482901985492534,-0.650978129808559,-0.146741276490547,10.0626448493545,-0.18291217764193,-3.27702944970965,-0.113566655945872,0.143216423658532,-0.0420179561065726,10.2074957051096,2.0044217085095,-0.943551318889046,STAIR_UP
1.29,-0.54298179291915,-0.608626191094591,-0.190750758568538,6.6054384554757,0.706257289289167,5.48949972382601,-0.414293464442655,-0.662149363361854,-0.121172251574678,9.75252069812982,0.114429050116414,-2.99098249015441,-0.107375185434662,0.159146146449212,-0.0155609564926153,10.4869562876643,2.26461842590928,-0.679802833056734,STAIR_UP
1.3,-0.622003543710337,-0.621453080627441,-0.167530194024525,7.25380542884502,0.288315514273328,5.67763203227107,-0.417688625576005,-0.690644210650958,-0.11261975726639,9.91556648052431,0.135705798727041,-2.88301835172635,-0.134554181930089,0.177933075040002,0.0100156918174721,10.7329241174764,2.53993833794201,-0.393937902561972,STAIR_UP
1.31,-0.638040615851074,-0.566160048427299,-0.131561472262003,7.82521093240514,-0.55469701530314,6.37538742385219,-0.453492832415236,-0.663972068365159,-0.11676858541168,10.6392121242446,0.149092501359577,-3.03820047936059,-0.182105185589451,0.161695867007157,0.0240014814422935,10.9241344430992,2.76731049411002,-0.351500457316962,STAIR_UP
1.32,-0.55992704810661,-0.485400995979355,-0.0698075834263647,8.48004500542428,-1.93184187924381,7.52834729440743,-0.447390333179299,-0.588088117093798,-0.123523368046817,11.1503308758507,0.069401075194929,-3.32073973624001,-0.227378533545708,0.160515544382527,0.0202313065373242,11.3570350025882,2.83314852162604,-0.260864655154089,STAIR_UP
1.33,-0.430574894289158,-0.199278368026702,-0.0254404092906369,9.92582930392121,-2.75385639229331,9.56652477526493,-0.417888307654825,-0.510654193688899,-0.134511004075722,11.7063956088116,0.0128575925811983,-3.51044456084985,-0.271690054673124,0.143372609744261,0.0082679640762035,11.6941234656967,2.85914428436555,-0.171838544478226,STAIR_UP
1.34,-0.282470743696831,-0.0992954201906834,-0.0682466741094993,11.6759866520037,-2.81037030369946,9.61423267705806,-0.400221749641412,-0.443914199637529,-0.13671103504754,12.3841704307617,0.0940314865021082,-3.74718078669592,-0.277245347014256,0.172009876463406,-0.0066391551044285,12.4646458935067,2.71213949701086,0.294046227076683,STAIR_UP
1.35,-0.0488255870456336,-0.382245927839301,-0.129563042946221,11.8480266549279,-2.30056444913642,7.84791791850447,-0.417373795729292,-0.396902672550665,-0.139747650226897,13.4808807825437,-0.0260222458006213,-4.2630469626502,-0.271624819220493,0.215713325250777,-0.0205022807221281,13.1605674248025,2.84295033662626,0.87854794499616,STAIR_UP
1.36,0.138433538446441,-0.862297498967824,-0.134188985973926,9.70512405414951,-1.89382551792883,5.33403328444507,-0.457386827319035,-0.230440311683261,-0.0966913970621879,14.7351179844132,-0.52296984445097,-4.04842052243712,-0.189004379068755,0.249049020449381,-0.0342762326481827,13.9391189076492,2.84012068924629,0.691205373073633,STAIR_UP
1.37,0.24258520686225,-1.22396419420918,-0.166607017895158,8.44862722626007,-2.08317695917766,3.48706318718422,-0.475754219940205,-0.0685393681761725,-0.0670807761595042,14.8046574556861,-0.427938234464186,-3.43539843934922,-0.083754078482229,0.30631715220256,-0.0295910480197361,14.4165123395805,2.73884257733387,0.902205676567237,STAIR_UP
1.38,0.700912422795988,-1.2556722638946,-0.332730841312027,7.50237262597962,-3.07975866305482,3.17784434646957,-0.467697108381664,0.0142951924299171,-0.0977256795607487,14.8423119611275,-0.209387845549612,-2.92756841130495,-0.008158372610096,0.335942901680925,-0.0201659473818128,14.4296327384316,2.72320718878729,0.90132545228547,STAIR_UP
1.39,1.03962697551198,-1.43902121153694,-0.412188879171545,6.70213917743113,-3.86399288880806,2.8804683944024,-0.418339703941584,0.0625142447587363,-0.137352509553884,14.9943679015136,0.0935137647881547,-2.74954223338765,0.108901349364093,0.366296593437385,0.0224930094099943,14.2610103194857,2.85008708519132,0.485960834647204,STAIR_UP
1.4,1.1431398719142,-1.71113644941489,-0.477530058762399,6.34430840463827,-3.914970658162,1.64429560716064,-0.338530185185784,0.0955891179946316,-0.167650250317785,15.3037190545155,0.145274647793834,-2.79154225845025,0.241979104822245,0.423902866458764,0.0982905048320798,14.1501207482283,3.10324938746886,0.432852540622442,STAIR_UP
1.41,1.31439950439917,-1.97389112987373,-0.530231058613288,6.29579413216123,-4.36448156804553,-0.0180519359246794,-0.276536733340907,0.165366479018339,-0.195379032815132,16.1416130636668,-0.177854515959243,-2.62936971201856,0.285268144218683,0.416591342407977,0.175158187079449,14.0523904448095,3.42028981849373,0.823094780532899,STAIR_UP
1.42,1.65268990231141,-2.05636122682992,-0.585900007739347,7.06058941104292,-3.08605728017485,0.253434250919697,-0.167524535399925,0.331663882466411,-0.193620014847978,17.101278981078,-0.388272802216626,-1.94559464926028,0.178235944542328,0.303911492984512,0.243692777082217,13.9297576329093,3.79014661079413,0.921452727456223,STAIR_UP
1.43,2.05729116002376,-2.10649158158509,-0.560773785480177,8.99493304683756,0.291478241030721,2.48305870946208,-0.0302986097020089,0.559840650347574,-0.165514142006122,17.7314579183981,-0.228574786782067,-0.70397947576542,0.023687899838834,0.139735046425656,0.307665135498436,13.8977388968732,4.14836734791575,0.389366747975972,STAIR_UP
1.44,2.05211156645649,-2.11935188442179,-0.495287463751096,11.3273171938852,2.85083904671855,3.7866173914229,0.108041928647424,0.8280892878566,-0.0950207160081012,17.9967467268059,-0.133253269493856,0.517348768396054,-0.130759477155636,0.0624786769593059,0.337773094653587,13.6818126488803,4.30175530242301,0.639864780005405,STAIR_UP
1.45,1.83377898759586,-1.99034761068168,-0.38825744231956,14.0310651502448,4.1831638309278,3.4782520188509,0.237592716757883,1.12341947153546,-0.0049126640962259,17.5761121049683,-0.367263673534853,1.7532254796706,-0.233511341099084,0.0467661985680673,0.353714677784573,13.2806419911855,4.01985514548263,1.0203786514539,STAIR_UP
1.46,1.40478914439407,-2.0005329522655,-0.217955648524902,15.4884203912209,3.96109003517119,3.2154854212009,0.318221463721604,1.40906498940952,0.111524324722692,16.5945183858515,-0.757856233671197,3.5130711961089,-0.285866649106941,0.0538860065654659,0.359336089578665,12.5498029894722,3.50486358483214,1.56232919609435,STAIR_UP
1.47,1.13488325592684,-2.18828982842486,-0.0053712921758924,15.1764424393858,3.90420869980671,2.09970950840906,0.333026089293739,1.68568663318287,0.237949441053182,15.4386204217279,-1.24925369201894,5.08258301705491,-0.345373167614039,0.008935934665408,0.371576547897676,11.6365932039807,3.03550519319314,1.74514808855419,STAIR_UP
1.48,0.970839139734129,-2.18278657131152,0.156532049882794,12.9098671316161,3.37530379739527,1.54067932657412,0.261495623174574,1.95605995981284,0.341570600696517,14.3183380821636,-1.69007965908547,5.97245079571606,-0.367303034046519,-0.0425042995611251,0.393394891382495,10.1586039010115,2.29542240935856,1.85197032271204,STAIR_UP
1.49,0.757481402525475,-2.10101283053854,0.204239744967784,10.0016379736875,3.09722951131077,2.40200823368765,0.160243849764493,2.29597087694024,0.397149583883717,13.4046703740435,-2.17787136858186,6.99540368637454,-0.343354939445046,-0.0210439672177183,0.393423449610826,8.4220403744397,1.32818701054942,2.3635702945739,STAIR_UP
1.5,0.697828046231389,-2.07100314773554,0.199743286776822,8.12887751668356,2.78073460340235,2.08203795053549,0.147307315471937,2.85682135071065,0.445048132566609,13.7753820724533,-3.22560275405771,8.53076960883717,-0.283955637817048,0.0263384494933297,0.351805192930889,7.07018180798358,0.576051317209628,2.85763109331884,STAIR_UP
1.51,0.796171124517906,-1.94847133209563,0.135992492114972,7.27885929991486,1.76456627960194,2.32717580053577,0.152358132346778,3.43069126510304,0.489500167186999,13.9627669225695,-4.51688870408199,7.68251325464746,-0.190443397719903,0.0544160052832544,0.29694681589892,6.21461264150447,0.396578391815908,2.69200253880445,STAIR_UP
1.52,0.949008270397613,-1.88855798034493,0.0559680396005927,7.2195034904969,0.978038185526114,2.08571965598502,-0.0218100724737769,3.42614060150391,0.415100304607307,13.7469455035803,-4.91205878149818,4.55037473815498,-0.126657419478495,0.0790196439127212,0.25179358383838,5.87434092797532,0.443149636192752,2.52611321962359,STAIR_UP
1.53,1.15623458372309,-1.84296067813322,0.019449347251775,7.60813867333253,1.09935899535772,2.09449558080434,-0.0499078879242851,3.37804277407512,0.373708187604257,14.4092099837209,-4.15293677084277,1.02760680925196,-0.146191501178647,0.148165692938426,0.224811160352974,5.80148477507096,0.327943456758208,3.03934664651215,STAIR_UP
1.54,1.306456980789,-1.82932007621645,0.0030056305695654,8.6644370648991,1.95522969464868,1.56448293279202,0.448866239974253,3.53656714923788,0.40258685788202,16.6201083911281,-3.63587825850143,-2.02338924456538,-0.257842615486102,0.176930451443756,0.224705141030175,5.73188384796644,0.290080166688135,3.18144520025113,STAIR_UP
1.55,1.36915584596443,-1.81827546609501,-0.0067934848229397,10.1321221116257,3.1078520229826,1.30538841612771,1.48994387040193,3.61685865944068,0.611707977582943,17.7794436904732,-4.22504973911755,-4.47505388861673,-0.345444645633831,0.15503554365606,0.239859173051782,5.83855924571314,0.416881248443322,3.03815890703451,STAIR_UP
1.56,1.29622725940383,-1.80369854784195,0.0146850893893257,11.1267214439883,3.75805545987862,1.30560523524318,2.44743881405303,3.65050865842983,0.86095154487579,17.030611537801,-3.52689808902199,-5.5424161586123,-0.378190959421975,0.150170749023498,0.260829842297152,6.17848478183432,0.758178553789104,2.99337876010656,STAIR_UP
1.57,1.07199232711593,-1.80369327650702,0.0683193883515316,11.2566778369695,4.01740872695426,1.38582392507368,2.58909616241555,3.66848600041987,0.850313634092427,14.6093504371065,-2.10876809215092,-5.49464906481312,-0.386286351419166,0.118743413271384,0.271006472192131,6.70473511797047,1.08067231751327,2.54274375666747,STAIR_UP
1.58,0.885953354768687,-1.8029356248588,0.124681812992693,10.4418095183991,3.40432429593623,1.41531154665842,2.16918432650444,3.7108447029173,0.626474333415245,13.766977893004,-1.97413657198435,-4.05562258882538,-0.370721046470367,0.0872263174327155,0.244268030548167,7.43741888370348,1.35408958238646,2.35635721002884,STAIR_UP
1.59,0.732650115982692,-1.79378700413864,0.173097631034457,9.43088182247164,2.62097564675496,1.38684491024727,1.75632174289327,3.82356692710671,0.411542044707134,13.623879554567,-1.34007921070141,-3.14174656328105,-0.359788283654917,0.0394528098731839,0.21039276419279,8.25439673278705,1.37642828035008,2.05946608819187,STAIR_UP
1.6,0.694361770337777,-1.75206397135455,0.204868500830987,9.06549316572034,2.37431030385715,1.12172491777888,1.50846216675434,3.74355002455955,0.249510443001776,12.9813296855158,0.0731606081532529,-4.63323600030509,-0.33459451888026,-0.0099035886838677,0.197179836562565,9.07191430747829,1.18811893825123,1.65312173634344,STAIR_UP
1.61,0.759793221640944,-1.69030037193141,0.214716407269048,9.15724221268225,1.67613437554795,0.814518505310404,1.41126661481336,3.58050080241831,0.0921228320099257,12.5598152306913,1.34159002141334,-6.17157855026123,-0.316621484883776,-0.0383853397408373,0.232187414480855,9.39025434543655,0.956190337786193,1.36367457304496,STAIR_UP
1.62,0.780494438489152,-1.62985721129399,0.19736379694028,9.38351798207569,1.25467399462953,0.903190633145374,1.26444590137503,3.60709856243981,0.0292717840309063,12.9441116581184,1.66433114139406,-6.62054654732409,-0.322867884998679,-0.0763488675516302,0.314280258820891,9.40119013382586,0.634804981077224,1.32288625242906,STAIR_UP
1.63,0.830650926348244,-1.59708927610506,0.175153602362001,9.30121466703658,1.08757001311223,1.05802151438901,0.999178643654781,3.92527052923905,0.0794484536233035,12.6558342147496,1.2415421198738,-6.40358475302413,-0.342922491675885,-0.105348229940249,0.400198724414932,9.1859113367208,0.392391446307287,1.39975017289025,STAIR_UP
1.64,0.93920614884976,-1.56538229517322,0.209501211831781,9.27595710487335,1.11173054253721,0.906624343175033,0.888467192487405,4.17772971083889,0.17077066101224,11.8010687576962,0.777210789741547,-4.4598782538952,-0.339748419152216,-0.134157541274199,0.463390621930185,8.9290484791252,0.304752534498007,1.32855227524454,STAIR_UP
1.65,0.987510148966938,-1.52586866535969,0.253297425207773,9.44733557402931,1.2468368253207,0.6277030432916,0.962640053873761,4.15112666686462,0.296842566963827,13.4476151728586,0.591118556901304,-3.05117316933765,-0.342110579655987,-0.158177793902928,0.482201007291643,8.7557999228382,0.318012187993385,1.29619016133033,STAIR_UP
1.66,1.0270734762252,-1.46697235478816,0.292514645200452,9.37100516376388,1.46657476383687,0.586682987940075,0.970535392454291,4.11061376172219,0.437796996820466,12.3835568302604,0.980652250203168,-2.06028702998788,-0.351316287238675,-0.157692370689329,0.474185872108734,8.62623191316967,0.298208341756612,1.37516552179673,STAIR_UP
1.67,1.09712559871442,-1.46830355882503,0.364222571551769,9.58700929573096,1.81303075794414,0.554206376267395,0.910885696377947,3.87982944294294,0.47376180578374,9.59198927110266,1.24422046049572,-1.16239191366954,-0.375276164006079,-0.136132477352805,0.422667760203083,8.40972998451579,0.204812927030935,1.41715826640511,STAIR_UP
1.68,1.09759904483916,-1.49362876524756,0.392865334306709,9.69017627559228,1.52645875695579,0.206252980495783,0.750108317522725,3.5520664256761,0.429354363550407,8.34728352719059,1.80390597360224,-1.23032508019896,-0.422095598775891,-0.116497643590831,0.358834241221759,8.1715679519805,-0.0223423146561154,1.3815618606972,STAIR_UP
1.69,1.0862695243397,-1.472572412293,0.40177324093399,9.90955000822499,1.24980183095708,-0.0703052474993602,0.486013748214118,3.33569361000798,0.428706000361553,7.67013867979301,2.14760337494152,-1.74764843743397,-0.448228008099126,-0.0930392340750103,0.283154626989073,8.09592875550757,-0.18889393757442,1.22474205519778,STAIR_UP
1.7,1.08497158236654,-1.38688924307366,0.39943450896035,9.89758326473144,1.36398153436248,-0.231545856634165,0.237725022569454,3.2314069410265,0.463120642036383,7.38333059049809,1.59957021078954,-2.22148463885609,-0.476440574984242,-0.0692178911105159,0.219283099827376,7.99193803364093,-0.3145054760697,0.988165534201759,STAIR_UP
1.71,1.0727797358422,-1.34349626393897,0.399172080753837,9.80843499672705,1.20179038090509,0.0090186531490873,0.118253658932438,3.17663180631064,0.447775098692143,6.93103133627422,0.664304576142198,-2.40028747415729,-0.486112666077419,-0.0124514275368908,0.177174336205172,7.84150967599035,-0.485428587312676,0.576098213639806,STAIR_UP
1.72,1.07165729005339,-1.29764509343016,0.413074302957977,9.63382273038677,0.622156576673657,0.550773472413582,0.170280907894296,3.03721469389922,0.421247718239054,7.05373325610384,-0.280979297463828,-2.53467602250272,-0.499327183510459,0.0693216139164308,0.137688102282377,7.71635260172175,-0.620496589508239,0.491330862999597,STAIR_UP
1.73,1.06756936454122,-1.26474282115533,0.450638104936321,9.58820211964442,0.189682689472912,0.641740605964226,0.408380274606556,2.90034013653653,0.398204225696501,6.9234626238415,-0.871834037040693,-2.55579707162344,-0.507546708531316,0.146701716560761,0.115215682679049,7.67717305451302,-0.72903271361347,0.623457170722422,STAIR_UP
1.74,1.11165531727501,-1.21626012679144,0.47867021596832,9.55549749425974,-0.0963694787183776,0.681351623096857,0.735805000340333,2.7471659221907,0.386306766628529,6.7178901959605,-0.971098862164766,-2.5176341875692,-0.484539907745984,0.196449967511923,0.105275898011959,7.60291260196777,-0.870002485486371,0.950480391654182,STAIR_UP
1.75,1.22230734387774,-1.13541166130351,0.489337039424696,9.65806272965998,0.161563771039601,0.846201578298126,1.15501282204409,2.61131479763328,0.381591629831935,6.71327080011075,-1.02276006487411,-2.72087627329027,-0.453770755734811,0.202079252542579,0.113752046689984,7.6857943526301,-0.873803459637937,1.09418296634645,STAIR_UP
1.76,1.33613011666452,-1.03014171023326,0.499605889799808,10.1257033175889,0.473382394657534,0.860887999397638,1.51548970469271,2.53070060948775,0.364601015863961,5.90476140625744,-0.301327670909771,-2.53956171945979,-0.406967128509077,0.201840683053845,0.129741237321504,7.94667589727886,-0.881419202368365,1.32131549106107,STAIR_UP
1.77,1.46399462055898,-0.926931974747507,0.473282468405294,10.47470911848,0.873670728700272,0.815397590279031,1.67350939948144,2.42226357730937,0.339920388904386,5.30125135382416,0.654221158807588,-2.02756469518095,-0.338207981648044,0.22756846605974,0.165787450327405,8.26496022689061,-0.857776937968752,1.36810536074232,STAIR_UP
1.78,1.52566036096437,-0.882603542511174,0.43363353708021,10.2683503605197,1.26565803027169,0.554602911888641,1.62950502670726,2.29591291285035,0.329787005817318,4.3179659808125,1.59619471602404,-1.41026726237284,-0.247754582873784,0.259570093400553,0.196090862598794,8.49240761017309,-0.76137388629383,1.37904236749623,STAIR_UP
1.79,1.5955640572857,-0.91667337480627,0.395245121950811,10.0889827927388,2.32850195209751,-0.21274296566968,1.4139249161454,2.09314585496479,0.288949842373232,3.56257834693313,2.33603225697127,-1.03189555085418,-0.158535438897046,0.249869320605988,0.224748646481757,8.80289780880179,-0.633871820601433,1.37472933362812,STAIR_UP
1.8,1.65430260792668,-0.925393055438815,0.323806970259401,10.2082333066741,3.07763229423444,-0.695735748660757,1.1003527594986,1.84210992104255,0.224525955935982,3.063956419562,2.26091761147321,-0.836864779116879,-0.0884564311637069,0.243342256152288,0.261725861087802,9.2351167727101,-0.591916490647966,1.31764992258193,STAIR_UP
1.81,1.66263780062339,-0.887790509335029,0.262796452722132,10.1953025661487,3.5290102477474,-1.57103811967936,0.814715035346989,1.60778650143474,0.167584073321542,3.08849067997984,1.27946676502625,-0.625473373910535,-0.017418034051652,0.251567255446678,0.292638918544601,9.69301463181184,-0.575497836744471,1.11050250246951,STAIR_UP
1.82,1.52952869942197,-0.803837399595034,0.24378814184483,10.6574605812615,2.89293406869789,-1.75928919811356,0.645966913958137,1.37781432836318,0.117047796952777,3.33264140266703,0.654631129117222,-0.356868173399552,0.0668541943984685,0.256330294292983,0.326595537380527,10.1426690930295,-0.4093497620763,1.01241122671112,STAIR_UP
1.83,1.29027797945971,-0.681454240537876,0.257674809114388,10.9637671264269,1.73199798291334,-1.7833415092248,0.625200136355452,1.1874786164042,0.110667035943291,3.35071349077368,0.628163245522376,0.180925767584564,0.100044980935184,0.267075670393334,0.359391798154608,10.5443506665013,-0.267391398288953,1.29041036984007,STAIR_UP
1.84,1.21120900065131,-0.626225787709048,0.302646678828564,11.4095613259486,1.55298107957717,-1.94253411214472,0.651437667250414,1.00813980405409,0.17117222345948,3.52789929500631,0.636623393690581,0.784347385020799,0.0438318801805561,0.267291436365013,0.376407264126742,11.0169611333425,-0.250773807589504,1.28377616072563,STAIR_UP
1.85,1.13825611917141,-0.610088650761409,0.355547869966921,11.6086297672169,1.82184751334406,-2.12906352524064,0.626128293251897,0.729281441514656,0.263336502183602,3.40491890988322,0.478722755718546,1.21531099958659,-0.0196884017723258,0.295407387829237,0.38914301532843,11.5279458367959,-0.245116380428283,1.3197814347683,STAIR_UP
1.86,1.08899824461114,-0.653923294434266,0.387444426924779,11.6550947691363,2.23847144940254,-2.10211205519288,0.57353476276435,0.368925862406542,0.367039032949385,3.5869483959873,0.102778359564461,1.71775213113682,-0.0930046914897968,0.34197355916949,0.38089682923975,11.9034488077546,-0.388810065943792,1.4458043163973,STAIR_UP
1.87,1.07768043920023,-0.66831059752126,0.413143722223088,11.7271095469602,2.44607105781186,-2.5523227799049,0.618828162515476,0.0431853312044555,0.447673526665889,3.7334965535202,-0.402381618554593,2.06246215410818,-0.140540333551752,0.350985024763687,0.353767268493512,12.060809721974,-0.373635264983204,1.31964135345991,STAIR_UP
1.88,0.948812829944511,-0.650305440417379,0.455433730126511,11.881208847366,2.54426317050327,-2.91577967776069,0.603019755902287,-0.23409388191471,0.521224652634962,4.0399159371272,-0.789722358777528,2.77684767109602,-0.150953589823001,0.313043678099767,0.313334054673332,12.2584876270557,-0.444943164568498,1.00519047415253,STAIR_UP
1.89,0.756310452113942,-0.596078980065702,0.479177421101249,12.3560032863959,2.58952433028721,-2.41399854555719,0.455817000393679,-0.508189777975209,0.571186347803182,4.45290884527178,-0.68734566575427,3.8471276659102,-0.107749931992091,0.285068044191371,0.273260371188717,12.3684849501329,-0.495168250974476,0.578821865756527,STAIR_UP
1.9,0.569698366375272,-0.572867558504575,0.483185691467118,12.8115914577024,2.3449953661397,-2.04394412687766,0.270817139111098,-0.79655377523426,0.575411088064715,4.70455900392332,-0.687645869345286,4.4588408814389,-0.0483760040271074,0.307750633038865,0.219826894476566,12.5708134756241,-0.605916455050331,0.543628758625033,STAIR_UP
1.91,0.434422721447406,-0.517245196592326,0.477235671040137,13.3261356215276,1.60700449620891,-1.72187052460453,0.17190389278834,-1.11985719969035,0.543693839359857,4.9857223602991,-1.09034224602458,4.0731472337007,0.0021197847899536,0.327925653848465,0.169063948545346,12.7799436305251,-0.829779252544183,0.624817629060664,STAIR_UP
1.92,0.337616070739646,-0.438913717102917,0.468587920217325,14.0327404430909,1.56019037145547,-1.04586366426282,0.126238539394993,-1.48025232482057,0.491904076972245,5.24489118415728,-1.20955221136185,2.75481800967199,0.0449714079483259,0.319993334374306,0.112220171386575,13.2073163436962,-0.816181507368699,0.702646337161042,STAIR_UP
1.93,0.319620613772597,-0.315056051666881,0.443428556623928,14.718383575681,1.78748054332349,-0.363219361117769,0.136548214730991,-1.84282012584169,0.432067490860467,5.27315515179815,-0.498692587536502,1.04072719412006,0.0956989861392507,0.323981174713786,0.081077258809432,13.6646580788719,-0.672753509522919,0.92450236353306,STAIR_UP
1.94,0.33905941079093,-0.171452847803745,0.389788826855861,15.1656509466566,1.54242612038794,0.466616730662867,0.168068608467702,-2.1513459249643,0.365043478645307,5.97394660686053,0.226860642300361,0.494627568566431,0.111878831473151,0.322797086526019,0.0464968928449084,13.9166938080858,-0.784644549015777,1.18117479015435,STAIR_UP
1.95,0.292638579931428,-0.0086108255338376,0.338340340420571,15.3753710383206,1.25133423777906,1.1135862957652,0.237555823478133,-2.11774176112323,0.388072476743706,7.55219928556394,0.993532599687219,3.06416140788821,0.0879107359803416,0.303634778792022,0.0160928006524646,14.0086992502409,-0.909967209452667,1.37302261966595,STAIR_UP
1.96,0.23648060039739,0.172334047146821,0.301705923380633,15.0850601468757,1.14995853824207,1.72667546255944,0.15121098338507,-2.17439176958747,0.606733653991743,8.60354255933325,1.37701501060601,4.03311192931605,0.0140099259100193,0.309970068166987,-0.0280097192549006,13.965190703348,-1.31524538721159,1.75097877569158,STAIR_UP
1.97,0.203744813461005,0.337105681806581,0.273161723830052,14.9435045144807,1.24777404535304,2.67945678224364,0.122981904494033,-2.76301349299309,0.706298835467419,10.8204310066993,0.120406709193542,1.72939562729508,-0.190915462610669,0.340732051929845,-0.0727125168312886,14.3419146417378,-1.66085912727586,2.73371745908316,STAIR_UP
1.98,0.15801521841034,0.541422311499771,0.258636149242484,15.0386538480686,1.41964089534801,3.58017387935989,0.401642779713175,-3.05693429500403,0.825928637668329,12.4269805349562,-0.860291540664854,0.200268069824822,-0.399617294400774,0.28496358618668,-0.0866099952577322,14.6520827257591,-2.06510665904592,3.86421906423363,STAIR_UP
1.99,0.0585676890501457,0.749064207400439,0.219330483044335,14.738056414437,1.50930133428659,4.06709614463729,0.400782931436316,-3.33421108079341,0.994393546624055,14.1820061582305,-0.762874900627187,-0.83707878012356,-0.21188902493588,0.226426698157559,-0.0372830390012558,14.4895053577475,-2.36286906125091,4.12341895993948,STAIR_UP
2,-0.0681566973441739,0.861653432611761,0.161659032233785,13.9171516987753,1.67930397537818,4.44362684705349,-0.1537859618377,-2.83641629122205,1.23815896781177,15.3920070009103,-0.39360532774475,0.77989479699288,0.285900447802475,0.0107537762218539,0.0495548439114477,13.3777933871355,-2.46394847389872,3.80768995237739,STAIR_UP
2.01,-0.21824197412102,0.85880232036046,0.0805523470351248,12.9124702815449,2.35699352119627,4.30989273445443,0.015642499696083,-2.3907373719142,1.49023449412395,15.3985455375077,-2.2093990909828,8.16524912930483,0.698762711559355,-0.185324052002777,0.107814128272701,12.0161999373704,-1.99653921883387,4.04041437120198,STAIR_UP
2.02,-0.35815926948838,0.781703176661096,-0.0207556914430027,12.4766882894669,3.50857439203401,4.18733656036607,0.382055925360394,-2.61085102111662,1.38665864231065,14.9243127822059,-2.21866242991483,8.81851488764014,0.713072234675141,-0.132535007221698,0.115248018024498,10.1115919792671,-1.14177574947711,3.68898124502912,STAIR_UP
2.03,-0.553050617610596,0.774051091344798,-0.148762324692804,12.8526310026711,4.95093359376776,4.92520832389112,0.352402130547687,-2.82923309467007,0.879603353104818,15.9219878859018,4.67427923425525,4.73845789749214,0.775859127575999,-0.062776659930229,0.130989937823772,8.51201606381324,0.2300124505876,3.86860489080284,STAIR_UP
2.04,-0.7608712821394,1.00655878681825,-0.242454487647073,14.5349599568963,6.06691463924208,7.18577137880257,-0.0879632955019656,-2.8837425609861,0.508795794101732,13.6939944451337,4.89509419979156,2.7753285910252,1.05753463734198,-0.192569009800908,0.124691740978277,7.17824422584285,1.37336855844978,3.87780844978127,STAIR_UP
2.05,-0.968813305064438,1.37629593327108,-0.317992325135806,16.4586348965366,6.57653671271426,7.46638177269823,-0.201078280488716,-2.87595394467762,0.139859310043842,9.59934796556281,1.59301066893248,1.56200657023238,1.08024206506902,-0.243296117401282,0.0095369519446576,6.02477676448298,1.65214192034937,2.94794105986052,STAIR_UP
2.06,-1.33918914072957,1.70052762773078,-0.502359208778627,18.2009494413984,7.50762662474086,6.64624735153812,-0.380732375001383,-2.40290125476343,-0.0804211616444391,5.83564301461182,0.831183907115534,1.01641940444286,1.05391733326801,-0.161207295172255,-0.172380661507147,4.72283133273437,1.32061676465366,2.61862203526748,STAIR_UP
2.07,-1.62704296215827,2.08821112797651,-0.765229821009366,17.9474839261858,7.70731787191139,7.24708646182366,-0.280270185115191,-2.03900906596841,-0.140711529781629,4.05823278219608,0.891714290988477,2.4214706733013,1.01591278083215,-0.0335578340742687,-0.327443916422459,4.43295875091342,1.24455961291483,2.86836774486429,STAIR_UP
2.08,-1.55198920523128,2.38515846717006,-1.08750017946304,14.9660806957137,9.06118042684112,8.66373717130252,-0.533332156552155,-1.83557485439841,-0.131822058552618,5.18625004965876,0.621123923625482,2.09479607427989,0.929220777961448,0.109805871141487,-0.452752105487205,4.99469002359958,1.06410401350236,3.07720491560468,STAIR_UP
2.09,-1.95222549114589,2.2537917521978,-1.16243130590336,13.1732803952587,7.68865950557755,6.67673391867165,-0.829202678294827,-1.73407717452183,-0.0352057686365162,7.6359054466196,1.40304767103183,1.89512615098878,0.85841761144589,0.14062255986289,-0.544626121792379,6.14353994943806,0.89804237968941,3.26228025718204,STAIR_UP
2.1,-2.72724992393181,2.1198293712479,-1.01390561986724,14.0913686776353,4.34367643710009,2.42061216961519,-1.28208127326785,-1.70150582216884,0.0939708807530207,9.5265323842894,0.784414739261018,0.502504839337091,0.790146553559683,0.115668391999137,-0.611609218059633,7.28135753247331,0.61852467679194,2.75024679392268,STAIR_UP
2.11,-2.65357318482246,2.31824111096213,-0.922749116899934,15.3779219923925,3.03751777106067,-2.03124141446031,-1.49059659130354,-1.81408632571871,0.177777879288518,11.1878167813922,-0.328154682877727,0.849862965523244,0.718895030229102,0.0547128926889653,-0.651179356581276,8.18247436251995,0.567624166695823,2.38219646736586,STAIR_UP
2.12,-2.01546646522441,2.41098399092909,-0.746815838509155,14.3258430896723,3.886728690785,-2.08380320969322,-1.71573147796314,-1.97496091296101,0.229991772903288,12.462868908029,-2.14020829120551,0.583740765097842,0.661762886843725,0.019779045621003,-0.615270301441396,8.58426453942243,0.639244196701749,2.01344429026675,STAIR_UP
2.13,-1.73982985363575,2.43680896761288,-0.412629525722684,13.6269419295845,2.13614884362547,-3.35716913297766,-1.68514802297905,-2.07389528075914,0.185890638867029,12.4477423548758,-3.79398167731108,0.511115404619377,0.608543545670219,-0.007789061948801,-0.52434350261402,8.59134685955775,0.935512889339885,1.82623404787009,STAIR_UP
2.14,-1.77698389082806,2.94671836317172,-0.19982747622355,13.7715024226324,-0.34693977862385,-7.82053153893264,-1.48605148029137,-2.12701275427197,0.0873171961799895,11.5789932062396,-4.56487366581832,-0.0346984981713584,0.542188000231718,-0.0294156321937219,-0.401486272714585,8.49124791678474,1.43417318759798,1.61309446680876,STAIR_UP
2.15,-2.06493112429614,3.86852028217161,-0.107324698812676,13.767561210757,-1.34710282971176,-8.17276600731541,-1.23302969846576,-2.05106709952125,0.0303192989359119,10.39149091084,-4.13759095816522,-0.134133017719982,0.479144363672506,-0.0580585087699095,-0.294682890037282,8.29256254797083,1.96679046777478,1.7020137746012,STAIR_UP
2.16,-2.40783316681263,4.48672034033213,-0.195481820460148,13.4367631827547,-0.437777110445901,-6.71347962827596,-1.02321132631417,-1.95762497917815,0.020406828249237,9.5106279897011,-2.60233977323275,0.0851484498994805,0.410547901864355,-0.105910049743572,-0.238976510532333,8.05328311337179,2.39887772506952,1.62994714779727,STAIR_UP
2.17,-2.89952311484125,4.58355124274321,-0.38089236142904,10.223950975099,-1.92905858866163,-1.87704993632704,-0.943616966477921,-1.92100248256678,0.006569120627706,8.98027548105479,-1.12286446975595,0.467035057553869,0.33309474539506,-0.146733754052288,-0.238394664235782,7.93525325246315,2.55861892754331,1.68292478772767,STAIR_UP
2.18,-2.95172839871787,3.71609641414674,-0.621060618593786,10.5636774263304,-3.17523339315119,2.0285501802248,-0.930435881428102,-1.92422651721948,-0.0168984041782994,8.68725645109909,0.122379079144557,0.913089475174604,0.265057409409864,-0.173157655795446,-0.302483059494511,7.88676716897898,2.4948004713329,1.92668036645823,STAIR_UP
2.19,-2.37571644533704,3.41062086990692,-0.837548979058748,12.5740927155329,-4.23486832148855,1.08075260127448,-1.07881315370235,-1.91366710640321,-0.0279432534174378,8.61854486172189,0.830495276323805,0.799449259583109,0.193640588192722,-0.174091781880012,-0.382765969167791,7.994443058906,2.18398146891932,2.08004316244672,STAIR_UP
2.2,-1.31705738890756,3.33372508810947,-0.795589084454749,12.1197909417544,-4.53205180313117,-0.483668164883532,-1.25199744696227,-1.95397210224839,-0.0740605043765346,8.44023248202407,0.910038012977819,0.545990721338772,0.179458825437379,-0.183107412815768,-0.455997316582863,8.20632803624457,1.60457028532288,2.01642452216228,STAIR_UP
2.21,-0.795956684848357,3.29877829367909,-0.579675155398714,10.8081915254617,-4.72816510752673,-2.67868949009928,-1.4215255820254,-1.97176413294708,-0.121148445579008,8.36962604851158,0.151244840589856,0.553438220105143,0.204099418211942,-0.211752493186965,-0.483181320944785,8.1930052587619,1.03830053565516,1.86715611485724,STAIR_UP
2.22,-0.252085935187598,3.25833943880331,-0.385729167091473,8.2087061717476,-3.92147566990331,-3.41728067388484,-1.57793029601095,-1.99478675088302,-0.136512930601425,8.53620265639815,-0.982087403658475,0.250828425496666,0.244376973073066,-0.195985301590356,-0.465570933529581,7.92249741434218,0.573555814290564,1.63000102052403,STAIR_UP
2.23,0.269548839774148,3.02046516190582,-0.29353105880506,5.75518580968736,-2.49453375844356,-2.4440619992,-1.62967963914151,-1.97561583688305,-0.11314950726646,8.72695950102133,-1.5276868908549,-0.363753798988696,0.24330236591416,-0.152654676663518,-0.438204866242409,7.61611376613814,0.208249963234805,1.75728707207328,STAIR_UP
2.24,0.386742678860494,2.82088461332276,-0.330458603111155,6.66730505343495,-1.10489300609848,-0.829897019019503,-1.62216663897891,-1.96089645879854,-0.0735423205849053,8.84213030117742,-1.93152557188851,-0.133460969659569,0.237045121453622,-0.111012112629918,-0.399769785542583,7.22030104198927,0.0582648792470832,1.66485804351707,STAIR_UP
2.25,0.119346342477768,2.78911370437544,-0.336576944716149,7.85962616471812,0.48261567249084,-0.414974171862353,-1.65946318672505,-1.93448889122438,-0.0533292790496196,9.10544990084714,-2.10801921743321,0.0658810836568446,0.265710204840436,-0.0872455967258125,-0.366584472363952,6.97532872306741,0.0992840925406508,1.3335729434076,STAIR_UP
2.26,-0.216126646339521,2.67087368198567,-0.294190384788903,7.79347919633024,1.07425622512573,-1.10114085743113,-1.64083250410125,-1.94114918099802,-0.0789384165552426,9.38790440781232,-1.65286668703776,-0.290365031582628,0.31432279241962,-0.0700986182943982,-0.331154923898836,6.70816659287124,0.376253799849646,1.06613022821074,STAIR_UP
2.27,-0.525811177343524,2.52778536818927,-0.272739356971601,7.13763923078285,0.922305552205187,-1.84710006766883,-1.57134335286907,-1.91324079087649,-0.0976790723762683,9.35399541717587,-1.28503505903776,-0.0552376598114305,0.358446523606259,-0.0584894093833039,-0.297812534196482,6.53999024671395,0.727615767847748,0.996868356111541,STAIR_UP
2.28,-0.70598140805968,2.38284096186127,-0.276765372891855,6.19656389676656,0.0192421097925764,-2.12329085069668,-1.61596641811357,-1.8405619173098,-0.124844370452154,9.30020536828282,-1.24553123648183,0.627142460568801,0.36788578792446,-0.0458674711350352,-0.290405058926618,6.64484429199406,1.18277741096322,0.929007680291926,STAIR_UP
2.29,-0.761624060887461,2.19008596430141,-0.282329461569076,5.78246240184595,-0.835881966534805,-2.22497165224573,-1.63960474948915,-1.73039936137923,-0.169061041729183,9.57279505948613,-1.51576583637478,0.641179324937932,0.359411214176545,-0.0371494129881205,-0.300556605590723,7.02912457352785,1.60284598016135,0.672148716616881,STAIR_UP
2.3,-0.792886222789728,2.02176716963241,-0.25228882564756,4.25124367432701,-0.662462336950858,-2.14863715370675,-1.70996192841536,-1.63525533326153,-0.198203397325844,9.79955000919856,-0.398519434095039,1.3383133490023,0.37976202337563,-0.0091020603112219,-0.314001875928808,7.39977586373992,1.91937742823177,0.688760065227092,STAIR_UP
2.31,-0.813218916386053,1.81015946514999,-0.1979743069353,3.24160950494146,-0.383145936923819,-2.01306554905655,-1.81561886678738,-1.63346496184618,-0.206942400880465,10.5379704859018,-0.296272028302159,1.38370014005552,0.363982998174885,0.02333415520926,-0.327213686078809,7.70287421787881,2.20681837441232,0.67972367699174,STAIR_UP
2.32,-0.794490579056509,1.61388756815945,-0.145714862947195,2.2811404602979,-0.077888830017202,-2.19523652346627,-1.95260607150418,-1.47752224626101,-0.188662479546522,11.2198874969464,-0.227614812020686,1.10234761708363,0.345657400229389,0.027827209324964,-0.32495518900732,8.02987547369771,2.4751901316999,0.678698744234101,STAIR_UP
2.33,-0.765203232084255,1.40822235955966,-0.0961370834698932,2.0198068507411,0.29197600665228,-2.37806636627096,-2.03012685168076,-1.31691791594681,-0.157623146124414,10.8519950998505,-0.335321985272878,0.84229786430757,0.284433722151139,0.018170071880501,-0.304152566040399,8.51197378326589,2.6897411277684,0.912240195596204,STAIR_UP
2.34,-0.829652679947761,1.22899650471524,-0.0650352004518854,1.66746269830644,0.636747954410713,-2.09495004913988,-2.02550899608452,-1.25722313728054,-0.125143505889086,10.2437465528959,-0.407498716690734,0.30338878476046,0.191130932651514,-0.0059850873753131,-0.274930495855999,8.98629311620146,2.80660586917319,1.05935874741208,STAIR_UP
2.35,-0.897736843840912,1.028243134755,-0.0617994952588588,1.39660513367661,0.697576529699957,-1.85327399875061,-1.95492371057145,-1.18574673845331,-0.123511976557622,9.9094220233709,-0.515355268218538,-0.371952640540641,0.100305567198174,0.0060385946853167,-0.241402860131334,9.39952738585103,2.79188607954081,0.996888063213383,STAIR_UP
2.36,-0.844372465989896,0.819062698517307,-0.0983641968091797,0.984524378990636,0.303260824194662,-1.40790322036545,-1.91947143863654,-1.09376238939072,-0.151235245942372,9.94077602189117,-1.16852561502176,-0.741265069788313,0.0563193702414819,-0.0016432494500504,-0.222939946755968,9.50254037440438,2.68272399362264,0.819284085239805,STAIR_UP
2.37,-0.7048891292588,0.561358100975477,-0.130557231277715,0.965386136448449,0.118807780776554,-0.813302248268937,-1.88134941814655,-1.11160482793947,-0.229080800323815,10.3195419685295,-2.47456109286198,-1.28284231052637,0.057911078464776,-0.0147601862434965,-0.216272573457552,9.68346788488771,2.60785932985586,0.775046281225441,STAIR_UP
2.38,-0.591634235750264,0.28071758379865,-0.130303751998973,1.13630742688973,0.124726844880788,-0.0465638025608649,-1.75718921680349,-1.08251632422179,-0.29628275307402,11.1593383634079,-3.41773220761174,-1.82008796829357,0.0780130910364982,-0.0242945512686292,-0.212878375230748,9.79687712565469,2.52338794944644,0.704417485698826,STAIR_UP
2.39,-0.498652645088739,0.0415623452529028,-0.0945142296892955,1.36360494571762,0.10490261345637,0.536527211679412,-1.56959436662072,-1.05126146297028,-0.328551132123141,10.7934715828349,-3.87648441326664,-2.37541788741549,0.102230069060596,-0.029025824880332,-0.215286333103208,9.92823410157843,2.39279113648816,0.532443543193931,STAIR_UP
2.4,-0.390736101157187,-0.19200699520605,-0.0967971338190314,1.96926612798149,0.422193010936462,1.28811292782465,-1.2809589527953,-1.16367036077639,-0.435674513663705,10.2966277546878,-3.87830952886451,-2.9873060954925,0.106174134405673,-0.0397642690407505,-0.208167131147134,10.1097839381206,2.17107202763011,0.190558111074301,STAIR_UP
2.41,-0.210753041630592,-0.462267217787322,-0.164490002418145,2.64143322677312,0.773314748256691,2.4608573541833,-0.880946504216426,-1.23631562234055,-0.555001641689703,10.1523549647293,-3.8654322544398,-3.57135539293926,0.108331033350986,-0.0497514166553252,-0.184868205260113,10.3141290269606,2.00081512691329,0.19618003110772,STAIR_UP
2.42,-0.133518540573451,-0.740742669220265,-0.246449160598959,3.09944880710036,1.08124175560389,3.35687289922757,-0.494426176533264,-1.29404758177715,-0.70626831917589,10.6153758809455,-3.66036210873763,-3.8960965797304,0.103704520743578,-0.0966738850952333,-0.148947519528583,10.3709057493712,2.05206404977467,0.0799643065694128,STAIR_UP
2.43,-0.132617619767568,-1.06335220361432,-0.305980251081323,3.67329318197566,1.68317647885886,3.39965879107939,-0.152793939856925,-1.2465599924242,-0.823127646731881,12.190421312306,-2.4890119408768,-3.88092774953157,0.135076004265538,-0.118988989679029,-0.0998075872956039,10.6218360521219,2.42535091927526,-0.135684375909713,STAIR_UP
2.44,-0.15388505175749,-1.35439882429786,-0.311259257750579,4.52548610622721,1.82125760873556,3.83736256304443,0.21131600924985,-1.0417150610037,-0.838257869817398,14.1781926989775,-1.45937234551338,-2.82972222358715,0.153611455374946,-0.130427871180263,-0.0297175274631066,11.1319678074837,2.83419803446052,-0.0018806050800207,STAIR_UP
2.45,-0.167591075289364,-1.45339779390633,-0.351144045421245,5.68631057462311,1.3593003821023,5.42690619082683,0.473343110734824,-0.777729845838574,-0.800614041754811,15.2523533740216,-0.901288025455337,-1.1586578804403,0.132391619192456,-0.138388345068628,0.044481503329847,11.8952165799908,3.52246320047544,0.179618478598485,STAIR_UP
2.46,-0.0492025250155057,-1.34988019373795,-0.402616690782279,8.19339493951694,0.331918164176633,7.62094627261372,0.701680724448577,-0.531592658125082,-0.763190499407857,16.2329614220165,-0.307050141691072,0.0263542427358445,0.0936339170070566,-0.138923029745232,0.122327698583733,12.8015661262301,4.39678266830836,0.46816589213409,STAIR_UP
2.47,-0.0230049308534799,-1.42016004944706,-0.358731749176869,11.2090571897082,0.433101601509627,7.72487192154435,0.816654479027532,-0.247242119054864,-0.69075407282237,17.0701506943087,0.588730512902494,0.556474697996381,0.0500507428551539,-0.0794470399420598,0.207650445828405,13.8732355344885,5.38268276450744,0.845936376561308,STAIR_UP
2.48,0.0675808745022884,-2.16339695929102,-0.216169351079955,13.1417229241168,-0.160644995053902,2.85100979222447,0.779229921679775,0.0167113165478043,-0.602486802267582,16.847543717062,1.50930618033934,0.940741966501011,-0.0233338919831666,-0.0109568615310948,0.268158195604671,14.9892813294219,5.89676760995346,2.20858749357802,STAIR_UP
2.49,0.231157518223767,-2.44804403346251,-0.166155255277028,15.094313244987,-2.92639179889494,-0.941025776785602,0.673807683814862,0.119978256594602,-0.556747168644991,16.026833480787,2.00508898891507,0.865463244409294,-0.188252388149948,-0.048343366377029,0.244953208752844,16.1573960101679,5.88664776991853,3.44354750539509,STAIR_UP
2.5,0.0030362484258234,-2.37683088074632,-0.315748540856162,14.4412613649605,-5.64080040652621,0.592108732275694,0.498060960984149,0.1542861098981,-0.540102417932333,16.1123517466224,1.90861304643911,0.698190887932607,-0.30744574623846,-0.148582687949315,0.179528070944431,16.4041457093906,5.33488966016645,3.44630960129931,STAIR_UP
2.51,0.402634151619539,-2.67842543923399,-0.557627945983492,12.6753331233228,-4.8026294199094,1.5199876408814,0.290402195902712,0.220427811609347,-0.528253039445627,16.3649109723489,1.84072281306074,0.787916266083902,-0.485119193887979,-0.229490403657647,0.0965671554518464,15.6699783512161,4.45033106600267,2.79640460408433,STAIR_UP
2.52,1.75771869581176,-2.95288257619797,-0.630573938813275,10.5915831299111,-3.15377255637939,0.511292959372618,0.0919142335414158,0.297789715337818,-0.503229704450239,16.7704015237101,2.03211631561032,1.29834247502264,-0.606916400331675,-0.360071612068128,0.0453582906137912,14.1069526745727,3.98196697836802,1.63906079984904,STAIR_UP
2.53,1.47908702972046,-3.22286783398627,-0.696913386877972,8.178186638497,-2.62446804340678,-2.20782756700676,-0.0577775137220733,0.383764966296899,-0.461732935162321,16.7837441232799,1.97510803549045,1.78546010205659,-0.619842580758635,-0.410837051170835,0.0355348247970366,12.5364822145836,3.52043364512979,1.30312089133273,STAIR_UP
2.54,1.41250607747179,-3.01050656045752,-0.670405681578423,8.55507108894031,1.55515334960988,0.62568691406231,-0.0710055158236267,0.458635256297399,-0.385489470582667,17.134186973783,1.463994545055,2.22697988932352,-0.538377627936857,-0.414044642336098,0.0641880062648505,11.1249563575868,2.63941510185488,1.12375538919991,STAIR_UP
2.55,2.13246147933144,-2.33767711757862,-0.478978061997191,10.0453924236673,4.00367482183216,5.21305873051168,-0.0187455679141622,0.689906869621863,-0.173686663392409,17.3704297908686,0.998940447456819,3.16056378448153,-0.560366425108122,-0.401336578047876,0.128674651262609,10.3099335231676,1.96080688829761,2.08677070427797,STAIR_UP
2.56,2.12650837973284,-1.81305731236628,-0.472385998586868,13.939408833757,3.22865899392451,8.16611907484232,-0.105020428016335,1.10064842180507,0.183946841278939,17.1151033521299,0.58048482287194,4.8216179798438,-0.576547266119783,-0.304647632845381,0.259922162432574,9.78612726926158,1.56073750635048,3.48027507571618,STAIR_UP
2.57,1.71110890063396,-2.01144428309024,-0.459487969932296,18.429868993057,1.8779096966447,2.96216277397277,-0.427677023545211,1.71659162882072,0.528280387356688,16.5442696529004,-0.442225185820264,7.69936101548525,-0.55394278001444,-0.195478812500041,0.377224668777122,9.47232538648553,1.11670076271665,4.81891510391515,STAIR_UP
2.58,1.48467255843921,-2.24234197950426,-0.101934647386216,17.6324823788125,0.481532341495618,-0.257891000514414,-0.733331344510308,2.59158606493397,0.700374727583577,16.3815361039462,-3.12742241648729,9.96959639029742,-0.489575838804444,-0.164968714256695,0.456273351844457,9.19667445614184,0.6472013401014,4.73029424034472,STAIR_UP
2.59,1.20395603641205,-2.33817458619326,0.338676878378093,12.7278932629424,3.08065969679379,-1.35342697930841,-0.560608628622543,3.42940210645077,0.70458781586384,16.0200010610184,-6.21593906800287,9.46280343513863,-0.346696984302345,-0.200960277635497,0.495280975197501,8.66057701777832,0.513126724505907,3.19481161420998,STAIR_UP
2.6,1.13428539039618,-2.15904916602731,0.592732844696705,8.28410802846481,4.09743757730837,0.346297470689806,0.0609889072299385,3.57820513132411,0.68133073660105,16.2387587020858,-9.9563224318753,5.21995589231591,-0.185024997786965,-0.187867487426174,0.525700450777661,8.2313378872889,0.267295296818694,2.53255060486332,STAIR_UP
2.61,0.981914716140251,-1.98847694416448,0.637618908368505,7.5957674427856,3.37599242555736,1.14000294328737,0.833379035471467,3.48658226956301,0.799303057422335,17.0009688157737,-10.725906974451,-0.623388189352847,-0.190947448351368,-0.0733113384519766,0.565954687278365,7.79942871905329,-0.0806344549657778,2.99883939718918,STAIR_UP
2.62,0.900543884946885,-1.8459253619713,0.52888052660854,8.93350419879493,2.2708010837613,0.877254895277275,1.89946855005504,3.260508737823,0.836004997277293,15.5195174479746,-6.25253054179307,-4.27275311550256,-0.300343076510656,0.0067569573180615,0.591964847414277,7.31043007741826,0.0070227083295477,3.03244399797779,STAIR_UP
2.63,0.816343738909804,-1.79859297104969,0.377537285272175,9.95271195389715,1.30347406747686,-0.266926672108859,2.34351315091711,3.09345765109113,0.69388564425745,14.7024375040584,-1.91487923287591,-3.2087940419016,-0.390459842071595,0.0210902047840171,0.596741256630248,7.26237076003125,0.323445268567098,2.92393041701893,STAIR_UP
2.64,0.80182800625829,-1.79505227113423,0.319870449616218,10.4481090801957,0.8721208030444,-0.392390644295869,2.11734563967122,3.03806046051468,0.480241324441392,13.6878533249526,-1.24702881389386,-3.7508366458142,-0.419806774099803,0.0040599523273865,0.588035465146051,7.41731692069697,0.5786046359319,2.54143465585987,STAIR_UP
2.65,0.825546635287353,-1.82449289823592,0.328257294377193,10.6023902795262,0.901052351405969,-0.265062649776521,1.8587588207836,2.98808137157035,0.228371416664365,12.9072415000233,-0.726703797260839,-4.75816178692789,-0.40700853576992,-0.0602686932942745,0.551261397301078,7.58597608590208,0.805665449498583,1.9007635115756,STAIR_UP
2.66,0.878063718029176,-1.82694331649041,0.357599047896171,10.6751001789695,1.55245063681453,0.211995270416905,1.72362207879261,3.21389087521936,0.0166567315604051,12.3725180609565,0.814940230305615,-5.30770716068217,-0.381318349542956,-0.101843650496993,0.479103105678601,7.84286965371917,0.79739341424129,1.67318317033671,STAIR_UP
2.67,0.965449346734575,-1.82381912415617,0.398288335126841,11.1851218553951,1.72518656861367,0.184472619721302,1.74456290433182,3.38933792572171,-0.112824798859594,11.1194005222307,1.85686512436664,-5.51019206936051,-0.365471800765837,-0.136146096628268,0.381589397723728,8.27887697306269,0.60535915725839,1.55747208731794,STAIR_UP
2.68,0.979476784027932,-1.83174964785536,0.392428277559129,10.8468454545593,1.49819992675598,-0.0491715857654509,1.69190801705649,3.4075392676238,-0.172243426688557,11.2019664713858,1.77403549387634,-6.59545432192635,-0.305054048607224,-0.14885447305763,0.30188049489797,8.63507538863402,0.237804273306812,1.47068297411524,STAIR_UP
2.69,0.998252396909536,-1.84929738325207,0.374948448852861,9.89161200188162,1.75758795915198,-0.32130052318672,1.46615626361458,3.5009083328657,-0.142104822729762,12.1729257581451,1.27553830357283,-7.35608541967829,-0.245580612147964,-0.166984290944453,0.266589726442757,8.91007259120856,-0.107388416128708,1.38182025755368,STAIR_UP
2.7,1.03133181179151,-1.81013601250184,0.359696421543687,9.21759292271089,1.59333834748489,-0.388054714402858,1.2538738983145,3.83372342223137,0.0416402060324415,11.4702633405444,1.45261720413967,-7.03457261775509,-0.198032284824971,-0.170490244927819,0.282575359867931,8.91744762465545,-0.307224711351745,1.37542515976468,STAIR_UP
2.71,1.07220243919677,-1.74457132375256,0.369884553337196,8.87448043004149,1.68086447462499,0.135779284431353,1.22408066151641,4.03702475834457,0.239093607022768,10.3728169325,1.67854729703933,-4.57658100838199,-0.174797374597464,-0.164041663672711,0.32474880192309,8.83056393977802,-0.278684519147487,1.46709032860011,STAIR_UP
2.72,1.12207856385569,-1.73822797062584,0.382127980611058,8.85390764146442,1.58529366819766,0.203504626504917,1.26348106619323,4.07722664327295,0.363428479952376,10.5325754676638,1.07899021978345,-1.89348395314554,-0.183705667322166,-0.140751906891607,0.360564500181249,8.75098883438406,-0.233139742505492,1.61638878998387,STAIR_UP
2.73,1.12385233307689,-1.7648172266561,0.387378435537389,9.46067956988794,1.7701180892331,0.116241405759411,1.11197793917457,3.95324148010238,0.415943092527681,9.77438839117738,1.09722498200166,-0.527517833309319,-0.203257522249878,-0.108819593925252,0.392995439828105,8.4504301444908,-0.11060330050054,1.8109189625883,STAIR_UP
2.74,1.0997250668156,-1.72149198715972,0.383013322944644,10.3079340726855,1.88747926860424,0.0336586798911359,0.96567059072587,3.56044421070515,0.379514044379423,7.91226909545395,1.95061361492177,0.283799457202742,-0.229554111535473,-0.0918558032006871,0.39415222542552,7.97341817744743,-0.0332027147955123,1.845405799573,STAIR_UP
2.75,1.07246656465794,-1.65720402388953,0.386497989836785,10.565477000808,1.77593069521278,0.0108332423105438,0.841037313019686,3.15334332946021,0.34239013504099,7.4035902252319,3.03900753959291,-0.285018172181885,-0.253915691574506,-0.0679312552028491,0.389425429277671,7.66075111134423,-0.0067052469359502,1.77358802509761,STAIR_UP
2.76,1.03456317026392,-1.66687417259568,0.395863304845995,10.310107962633,1.61875854601513,-0.0643760898673836,0.483367734476638,2.99915809883849,0.354918244819113,7.88041866809552,3.30581130185451,-1.66759380080722,-0.282171538671061,-0.022098100313541,0.362313722906695,7.46358294620061,-0.0812347857477138,1.8322708028469,STAIR_UP
2.77,0.992338369664638,-1.63223965761513,0.404018337656698,9.76741721181975,1.17583229625875,0.0690024423076787,-0.008146497949059,2.98191344387557,0.358908821037565,8.00896984825835,2.27181803255214,-2.57785517430246,-0.298882524922305,0.0254179570397355,0.329460321917509,7.45131087736527,-0.092212563340022,1.62483611232611,STAIR_UP
2.78,1.00695781478473,-1.59130215744242,0.418264534213489,9.15443630363362,0.902202541046551,0.147789937453188,-0.275489838973275,2.89884612660128,0.352813670170978,7.91282950574545,0.454299920082531,-2.57508553911162,-0.291528000709423,0.0626274386874692,0.293233824164728,7.58731588247849,-0.159741464918051,1.35718488171116,STAIR_UP
2.79,1.07423422773933,-1.57418135124755,0.456782472394471,8.72306840910876,0.837610422089204,0.205805426240392,-0.168120137019965,2.70675964456188,0.318910338127842,8.04266651352656,-0.544468279481471,-2.25406957120892,-0.268295890252135,0.107873465313381,0.254475715523516,7.58082898560763,-0.29224527281102,1.21993643481747,STAIR_UP
2.8,1.04264270574608,-1.50623980996602,0.493397606031323,8.75554778734447,0.954139309446744,0.603559221510203,0.186165281793171,2.56447349065862,0.285335509093753,8.09763759688333,-1.20749886437174,-2.43571486553584,-0.254430984904672,0.159621384216873,0.214702523461891,7.42017773817415,-0.379345887566676,1.32577652657451,STAIR_UP
2.81,1.04658223163421,-1.32671666134113,0.512681522324935,8.76505871272307,1.22443227270443,0.518595482767549,0.659971034974969,2.48969045516497,0.257245632484891,7.72288358308831,-1.61493619796875,-2.69327564948008,-0.241660485054721,0.191517481818502,0.178051309608604,7.46472259353536,-0.405491889313338,1.42943566778504,STAIR_UP
2.82,1.14929901806838,-1.24888845062493,0.491429233689111,8.75594243078655,1.63791607381991,0.0669866136795435,1.0890577309355,2.40578323681469,0.206927709000153,6.71956851517736,-1.35237376596929,-2.74788648819396,-0.230167747467783,0.203812874866227,0.158685469243301,7.50593363031276,-0.341687934992773,1.62256507603285,STAIR_UP
2.83,1.21666648299785,-1.19639018274922,0.451543469029658,9.24027602312694,2.05602235879535,-0.143042614031375,1.34623267265553,2.30767340559483,0.145054252238169,5.99204299369681,-0.741355551529761,-2.61091863190743,-0.229925747167432,0.188510138359734,0.159990794970617,7.50611164812464,-0.257511930039266,1.62460883277347,STAIR_UP
2.84,1.19009679709088,-1.08563146148155,0.381691509342083,9.60959382885534,1.92842955574034,-0.0984935299975012,1.47703575294799,2.19599156956374,0.0951599288721388,5.13687567999655,0.0435328033039215,-2.12138421811671,-0.233894301475899,0.187677849342884,0.17462821016384,7.60538495951281,-0.122814615391951,1.63941691699283,STAIR_UP
2.85,1.09016993309798,-0.996335287532235,0.317993722619056,9.74767043253489,1.87293736380334,-0.575493865601017,1.52274518511496,2.021565522285,0.0545857885131926,4.71006600501754,0.748110386577365,-1.49074716096329,-0.215014443639227,0.193545703494339,0.207555086801721,7.78964028323479,0.009519106104825,1.47605376721894,STAIR_UP
2.86,0.953012170965934,-0.96474159602499,0.29379539987721,9.84822546779715,1.43120058660026,-0.640927315594485,1.46581367672296,1.81386269888745,0.0288973829901801,3.97095763780619,1.10260531181101,-1.1543782922402,-0.186744179409005,0.198038135065346,0.245221057952034,8.06841589926529,0.119925479363428,1.49831930622909,STAIR_UP
2.87,0.791415852156257,-0.862766598704294,0.291694806419081,10.1759015560924,1.45641760018914,-0.728138802459112,1.35500712546994,1.59791902706811,-0.0039742285243208,2.86352958073604,1.10721788095052,-1.11116208805665,-0.139677251952247,0.185335952130175,0.278305631837541,8.38217359043128,0.131330881439715,1.10541133067408,STAIR_UP
2.88,0.77798399238729,-0.80093789740463,0.2837637297517,9.87263274276723,1.11682231642521,-1.02800661103245,1.25441786793029,1.43239630920107,-0.0257452904237098,2.37224434734098,1.03642343212362,-1.1798620469878,-0.107721935030308,0.1944683256737,0.310377728843608,8.70849401413227,0.0027158050152734,0.828751476856204,STAIR_UP
2.89,0.902855404203075,-0.821028962197741,0.294774813024946,9.8588041303875,1.15794368057906,-1.60280512432429,1.15101972196416,1.2520853471838,-0.0151545710230366,2.44835129275911,0.348420407345563,-1.23249052454405,-0.0894411602314643,0.243051362242142,0.324166108782499,9.24837475619293,-0.0957639199078909,0.918437096137596,STAIR_UP
2.9,0.899938380932919,-0.772932920235854,0.350358331283249,11.1110420156451,1.55114808865908,-1.28990993642918,1.09651865869822,1.05066885260137,0.0008283171277059,2.68931274200749,-0.0345796898869929,-0.975701671891302,-0.0770272303315305,0.273349676972364,0.332555029905487,10.0572551844576,-0.12088975962623,0.83112747470443,STAIR_UP
2.91,0.74432460398447,-0.639343962006208,0.413866982672956,12.1077561532529,1.69506381230077,-1.14821083843794,1.06889166286938,0.771953158094756,0.0344464567946274,2.78629592252377,0.0079635500615474,-0.4765844356776,-0.0846150169035184,0.277543726258884,0.338138439315985,10.5899571297051,-0.227064956280528,0.722193600113422,STAIR_UP
2.92,0.653030073125988,-0.651511269024895,0.442305180052468,12.1388253555417,1.56488788065835,-1.62331935358096,0.902095746130675,0.448912780784304,0.109202458255789,3.20122224320431,0.019015210799483,0.484867762727747,-0.146846124658419,0.301105873907898,0.318231608896351,11.1098739340765,-0.3882343620542,1.02319882104735,STAIR_UP
2.93,0.501846708620006,-0.635237332874709,0.461855064610087,12.294626033881,1.65481648074638,-1.56945995721851,0.614572850345426,0.10709607053166,0.233343131550063,3.46426340628355,-0.190143673240826,1.35905580438267,-0.190461020203648,0.276314771923133,0.300431247188218,11.8032805376011,-0.430232397530139,1.35293056344167,STAIR_UP
2.94,0.403597173884228,-0.615673553959135,0.490278061192237,12.5097111936252,2.06370212557516,-1.77233428681729,0.430761083191338,-0.2830160354777,0.351251804576755,3.56855082855738,-0.411513237852441,1.76185417878191,-0.215216561722138,0.184268387555249,0.286823321051311,12.2780058268637,-0.434221058604947,1.34573755280748,STAIR_UP
2.95,0.354419924671198,-0.630043229753552,0.532211305643081,12.919040428566,2.63268425248263,-1.59518683440583,0.404763172457434,-0.601597891870507,0.456590638665411,3.75634292337413,-0.455752868627015,2.10014380665282,-0.247843052795136,0.0954403540989907,0.258800027685836,12.5677838088734,-0.572784691860199,1.03464663258572,STAIR_UP
2.96,0.176892415583154,-0.568552974534544,0.555223928512359,13.7067227422008,3.183595319595,-1.15082874844073,0.466436506245396,-0.86604472148361,0.556990287706284,4.02640467705066,-0.242986266237639,2.73863026483904,-0.328874736741879,0.13400375667092,0.204595403120825,12.5579636913171,-0.752238695753376,0.684015602261268,STAIR_UP
2.97,0.0177185546043749,-0.436646072843317,0.501761242487108,13.8200020448774,2.66167464877412,-0.921674117818268,0.493201112460761,-1.13533878742937,0.659948924412945,4.32784658574067,-0.757248945624931,2.98243802027954,-0.365635978055011,0.148299022792101,0.11687190773671,12.4530657341904,-1.13370542926979,0.794334246946011,STAIR_UP
2.98,-0.0567872749865786,-0.338357355666536,0.45782510145366,14.1119576395124,1.76668404684064,-0.692094560378112,0.282198690666519,-1.60890767405488,0.691307525138566,4.64645740824761,-0.747722331184348,2.41473577771274,-0.361155765001355,0.123336979295003,0.0368276212604285,12.4759328989858,-1.36123678921105,0.417713036202168,STAIR_UP
2.99,-0.104882231239822,-0.269642321744073,0.4382321126192,14.7409728529573,1.35635292803763,-0.102523289235767,0.0777541823538535,-2.1047552879005,0.616949202912583,5.51465498055042,1.07749061520293,1.39599284265304,-0.310002117053025,0.0647381749451018,-0.0397457359097351,12.7218675332672,-1.4155737380358,0.454598869938663,STAIR_UP
3,-0.0781607240386873,-0.230088801844519,0.426781026154482,14.862632379705,0.52239940901913,0.552319121386697,0.08577074390948,-2.03152767732271,0.61426858456856,7.0650303492266,4.42656859309128,4.83382551744631,-0.256316166420993,-0.0144787434698001,-0.104322401000193,13.1503041488019,-1.4147873036486,0.346668911714578,STAIR_UP
3.01,-0.0817702251375099,-0.174931206222702,0.447742066457278,14.6431844055511,-0.284176470588123,0.831647113167774,-0.0612392701171554,-1.77710045581214,0.681586404706841,9.02188445285235,6.44476944220308,9.74809984995456,-0.257338500953003,-0.11290251896717,-0.166898797988688,13.4762037663619,-1.5761306872857,0.0576121425140222,STAIR_UP
3.02,-0.0273453361634716,-0.0991381357936463,0.458146104255331,14.1920638064974,-0.190709298208091,1.15750852137275,-0.187583324021666,-2.59892197317586,0.676903458981881,13.252397495977,2.47453598000733,1.17769595796429,-0.414468983915896,-0.038548095751991,-0.238057077607594,13.8408903189435,-1.90844857551113,1.08883600820065,STAIR_UP
3.03,0.157670344203678,0.013881367521607,0.44600047251257,14.014595760382,0.609576306163267,1.28066938595653,-0.616965643496263,-2.73769192145365,0.877111222600658,15.5737759141659,1.59667220842465,1.89567464294178,-0.472872826492106,0.0544605487647736,-0.250723762467588,14.4809881682703,-1.71075273017437,2.52415503135008,STAIR_UP
3.04,0.343073154193052,0.17644570196139,0.405822754156489,13.9252784446139,1.34260158687053,1.7357217813385,-1.33140519421074,-2.86193010485866,0.854423508296947,14.7250981045103,2.63218481124822,1.05070903865674,-0.257298039256439,-0.0641429605457761,-0.179926348203179,14.5644200023665,-1.57438412610438,3.32858799223862,STAIR_UP
3.05,0.397630628497976,0.392416672370255,0.321407484900647,13.637911125224,1.91697049471471,2.42589958576047,-1.17268761229024,-2.71560570951957,1.06468188414077,11.3096310979739,3.45449232574904,0.478279169561654,0.0430755852295894,-0.242757144861775,-0.0842366022852487,14.328579231473,-1.4708509732301,2.75810152135882,STAIR_UP
3.06,0.287050060842494,0.584932870762437,0.187319443228356,13.0010201424568,2.24762286208847,3.04802088762057,-0.870524361230057,-3.18146810148779,1.05449986720475,7.85947614455438,-4.31904043742757,5.63446428913479,0.318588590711332,-0.31973211010735,-0.0297785219870051,13.0416730811631,-1.39052392134762,2.21423208277314,STAIR_UP
3.07,0.093038858798272,0.713910388782137,0.0467380928859501,12.3030267838207,2.5537397976005,3.44733597657722,-1.25106141882279,-2.94623216463376,0.661551107050566,9.54185843533606,-5.78703893056117,5.37928031373057,0.384185945623635,-0.407925675375263,-0.015860373011875,10.9479128937776,-1.31523760614792,1.30579556466775,STAIR_UP
3.08,-0.175792242474385,0.795718018428983,-0.0410308988301575,12.1344992937238,2.8997316091683,3.75553323648191,-1.11681966994261,-2.30898981207919,0.516417089641372,12.7678272144859,-3.71112664918038,3.71950918790895,0.472496882124823,-0.373234027235597,-0.0014137886265399,8.83836523896622,-0.671785175683773,1.9388702043304,STAIR_UP
3.09,-0.563083642316503,0.92441176050262,-0.0641105648964721,12.8827707608886,3.630603719416,4.37217027858272,-0.325294187440504,-2.22774885667653,0.35671956504004,13.5870590828127,-0.423703199761154,2.12070010026944,0.640483891631907,-0.279593271842032,-0.0033228021312776,7.93499705355088,0.104723951319272,4.30210418421223,STAIR_UP
3.1,-1.00583021199046,1.18245896557187,-0.067149937695442,14.5981094610601,4.56907573913804,5.34791487513484,-0.261924809219503,-2.04739713510776,0.0515552392672034,12.5938329127956,2.2981986696025,0.0557413204489958,0.537680752035595,-0.221465560613665,-0.0335972189085014,7.52861123733639,0.628907151948362,4.73364447275689,STAIR_UP
3.11,-1.38043564763862,1.35483994911123,-0.116896589205222,16.324077017779,5.73983728471544,4.48661507909491,-0.261924809219503,-2.04739713510776,0.0515552392672034,12.5938329127956,2.2981986696025,0.0557413204489958,0.446570076756832,-0.242325372440133,-0.0676340270548423,7.11835363679997,1.01218472018277,4.77721266024734,STAIR_UP
3.12,-1.61290639176484,1.41979779498849,-0.267102333307434,17.8768448166516,6.16626508384485,3.41390396572872,-0.367470788129556,-1.95675888884194,-0.22303243235334,10.6131765824762,1.05424812266054,0.269046538452961,0.411097977845159,-0.335308784252757,-0.12699827850654,7.00396653680579,0.767470789046303,4.02198714450355,STAIR_UP
3.13,-1.61923619513355,1.72393137607636,-0.495386174636816,17.8978209081678,5.59697830302783,3.79943569840916,-0.63332921136305,-1.94121008299289,-0.382760817069851,8.71885236926694,-0.0255450886908239,1.00998251831283,0.345865968044136,-0.283555616324682,-0.220590818772782,7.61605074574749,0.758226042093016,3.02485321144221,STAIR_UP
3.14,-1.55165374346531,2.10844680615482,-0.727736200801426,15.1775186776089,6.27568895383532,4.78613159454406,-0.890280561299318,-1.94576361303694,-0.372230870788107,8.13061614025647,0.161334345105783,0.96454800154094,0.310347936656504,-0.157796817562118,-0.329693241526669,8.11897219403039,0.885078192737543,2.50887846175157,STAIR_UP
3.15,-1.90547943622218,2.20856909599471,-0.800305940954271,14.475613245825,6.05909535974746,3.56930121758137,-1.12041981185569,-1.90652093691495,-0.250009927918424,9.2400549454855,0.222656942719915,0.592788620382039,0.281606694611259,-0.117935056629312,-0.43460586708797,8.53672377847139,0.89978244347828,2.55099991025109,STAIR_UP
3.16,-2.69444706452485,2.28009335652813,-0.721963244294611,14.3630170970782,3.62648750366879,0.95382122209642,-1.3595558864163,-1.83043804806921,-0.0990320225934917,10.4066332899581,-0.198828112668231,-0.819624403369175,0.286386725332348,-0.100317641634907,-0.535621847238394,8.74904456268512,0.946500939619675,2.19453692071916,STAIR_UP
3.17,-2.7942211517344,2.35708472634322,-0.705305564069585,13.4794507450841,0.418549017157117,-1.1075315766729,-1.46355323861629,-1.82914577094438,0.0269085610344511,10.460538419519,-1.2802436182521,-0.973293554100428,0.343176766954146,-0.0637526869439205,-0.604277416376964,8.71657515627976,0.912694370414095,2.11162273267674,STAIR_UP
3.18,-2.17168162640488,2.36800659648107,-0.643890512564212,13.3547147829484,-1.23177411973209,-1.85398939480573,-1.55152834066809,-1.92115197982808,0.102067804382257,10.152639090878,-2.17301375349208,-1.05468830574271,0.39490411584358,-0.0216243329635156,-0.618751551053524,8.56082709421799,0.87122391041308,2.09444056500059,STAIR_UP
3.19,-1.81734446262048,2.22762842433931,-0.493554651293424,13.6407228288874,-3.14333556665222,-2.66983500111223,-1.552247251079,-2.03405170300497,0.135047731553098,10.3181325527761,-2.28069684823576,-0.699937922130295,0.40384396406137,0.0156959768845497,-0.575760064911376,8.50162235937298,0.911850853463278,2.01926890273627,STAIR_UP
3.2,-1.79977282996102,2.6033142573257,-0.391360192468278,13.5698907730139,-4.48931367187439,-6.12208530203465,-1.55734743024242,-2.12923771413855,0.109163833247544,10.3867765964255,-2.71892326634197,-0.70544076223825,0.369623347075262,0.0391686029656204,-0.510867791781365,8.47447494717732,1.08962545823205,2.00045819887755,STAIR_UP
3.21,-1.6368490254553,3.54419360100183,-0.339404801937815,14.1091872528794,-3.94539842000232,-9.34827275168636,-1.53690393553874,-2.14941601621426,0.0531649419595427,10.3271086811808,-2.47576911143321,-0.885465337659109,0.335752817378967,0.0454959102643447,-0.453492258640598,8.60629331132878,1.31256875771025,2.03969222423057,STAIR_UP
3.22,-1.42828979989932,4.19432595876756,-0.426911627922958,14.2972663239849,-2.16326951886881,-8.54176023245787,-1.43563187460609,-2.134965526389,-0.019464835406204,9.85282497899995,-2.05718207835772,-0.913453807163095,0.307222718745856,0.0534474254410508,-0.40504486675115,8.51835651764251,1.58156533093566,2.19525417463058,STAIR_UP
3.23,-1.66362380285628,4.55180793213054,-0.636646812449265,13.7261567338014,-1.60742642218748,-5.27716610311406,-1.40130810256992,-2.10898280000982,-0.08979082280253,9.00887413356482,-1.92270573142487,-1.07309378673427,0.288385834948761,0.0362432971820897,-0.373951364632018,8.37036571804348,1.6416035609501,2.15158812210541,STAIR_UP
3.24,-1.89447864474042,4.50968933901383,-0.66777214575421,11.7177273992831,-1.98600447617837,-0.774785752264657,-1.36337187181431,-2.09725825038796,-0.15443911026936,8.33219685707227,-1.61874439246503,-1.45193196754418,0.276893933217308,0.0414119757744097,-0.370038353561788,8.35802828695772,1.63487261396416,2.09178489695755,STAIR_UP
3.25,-1.77980281778688,3.83025590918,-0.662048550660912,11.0471751529577,-3.77380458747289,2.719726438806,-1.29949148971498,-2.13062576322262,-0.215976289063072,8.19052522100744,-1.36572142348812,-1.28694373387591,0.290366705099601,0.0589201936951458,-0.381263748571821,8.3380897791579,1.54619530175234,2.38231369132038,STAIR_UP
3.26,-1.12678229071937,3.37846078085592,-0.691521037665777,11.4136056553333,-4.76098789739988,1.70420131719485,-1.29036036302906,-2.18176206720713,-0.259256628844247,8.12228354086688,-1.22917669614356,-0.900603228226113,0.305090983618795,0.0391608354678654,-0.389827816747749,8.26575267866232,1.19339506181255,2.31694573915386,STAIR_UP
3.27,-0.372961371424315,3.50409602908218,-0.63425633292548,11.4993960021371,-3.50022514158202,-1.16640336472233,-1.33814030319682,-2.21446681503257,-0.262196051020643,8.03012894674353,-1.31377568000506,-0.727629862718501,0.315377172900314,0.015464219398339,-0.387229806296436,8.17987296960655,0.837056076764686,1.98832926631424,STAIR_UP
3.28,-0.102711513031996,3.47445677889082,-0.43488374874048,9.50503610206491,-2.21195623804222,-3.55207170138004,-1.37530954214922,-2.2296951745597,-0.234600956028955,7.70306026597735,-1.54984797630878,-0.424385924063517,0.332889995041783,-0.0369349482682217,-0.373911531692752,7.81900238032983,0.393241476438948,1.81834927459999,STAIR_UP
3.29,0.184344975866817,3.27702658390215,-0.228177485101178,7.40415314380238,-1.46715157846579,-4.3216217822782,-1.36950214050815,-2.21583752123325,-0.191807211450364,7.58593544250184,-2.29077268050567,-0.384221409747303,0.353209205047362,-0.0969947395865594,-0.35716808862389,7.39904364189236,-0.0628757794605834,1.3687607305122,STAIR_UP
3.3,0.439682770871618,3.03044378036996,-0.18084864998139,7.37206934364515,-0.296360834110152,-2.67607748885335,-1.24290049516969,-2.11489423736581,-0.168737994692221,7.54782673269071,-2.39569241610908,-0.0404591634063078,0.380299660811398,-0.103047724951798,-0.342317587383323,6.8996560474272,-0.3166251955395,0.658973676684423,STAIR_UP
3.31,0.269100895340834,2.96685893149769,-0.243443874903325,8.03554270113535,0.644738688446223,-0.700867944929662,-1.12892279377445,-1.98819646676794,-0.198227891013397,8.08886596925674,-2.26010406901573,0.372715897320446,0.432544001297587,-0.0460402368591382,-0.344874487258936,6.54875650675702,-0.466022020278588,0.269212859515322,STAIR_UP
3.32,-0.108423641793171,2.96997804913331,-0.312724878053638,7.96092202280371,1.1458127607484,-0.185249184535419,-0.989927892947759,-1.79861105926533,-0.261855050645573,9.65918111906033,-2.24981913779487,1.0013718055463,0.547504932024719,0.0357032237827828,-0.352118297371681,6.12182720846344,-0.397030558528155,0.474686175489988,STAIR_UP
3.33,-0.406144564366534,2.81747261809628,-0.320270740132644,7.32248232672028,1.54003159940548,-0.77822203289303,-0.934068452769091,-1.53199419614897,-0.31068210236686,11.4030172843023,-1.65680097309973,1.70563045439086,0.650718469125099,0.115182081918063,-0.361508782359305,5.73802428697055,0.0639507171222229,0.374551154399753,STAIR_UP
3.34,-0.613044065629787,2.62063270672896,-0.310683241356475,6.92386327161379,1.5175470197437,-1.34118700521477,-0.976236209701656,-1.36350158747756,-0.342995228245843,12.4283985850928,-0.638822993961391,1.91450746807654,0.794604895389958,0.219994705980481,-0.375931186012858,5.65355716678807,0.56893330390183,-0.0385288552171236,STAIR_UP
3.35,-0.791629112296081,2.45517470684758,-0.311964226048758,6.70292382789587,0.947691249135835,-1.80929310011831,-1.09639740303367,-1.23221211026796,-0.325318402480437,12.1749391037849,0.988825216737077,1.28566251158714,0.857372090120557,0.338752378886844,-0.383231583717046,6.16749188674421,1.19918011051487,-0.354934649172065,STAIR_UP
3.36,-0.87386939757826,2.31517318467354,-0.248846845633786,5.90989487091316,0.364787852171516,-1.81934919814381,-1.14628694226135,-1.1246050241925,-0.283077564776976,10.6579832021911,1.45493169209083,1.31117896446585,0.864504768427852,0.421666089701884,-0.372333675377091,6.98535538563144,1.83218680685382,0.120680182287554,STAIR_UP
3.37,-0.860473762433126,2.16486212502535,-0.100375824730087,5.87351316582021,-0.389200803924466,-1.94747536418475,-1.33577768004839,-1.22929591084025,-0.297132696545428,9.24893571117482,0.698353420281332,1.15350182015041,0.808171521638093,0.424553062884915,-0.354170199867413,8.00115182988087,2.30310680481514,0.651889045381598,STAIR_UP
3.38,-0.859552612581407,2.05142201826287,0.003868507337235,5.92770552289314,-1.00991360628417,-1.79232915938151,-1.53133266780292,-1.21731191137167,-0.28138479324315,9.61817522543061,-0.34446911216141,0.152975345308884,0.697447225204551,0.40528953742543,-0.317969584752947,9.19243619144571,2.70213391513613,0.288157886899008,STAIR_UP
3.39,-0.90313053785022,1.92386510705519,0.0633973068385064,5.13010202100325,-0.846699604432982,-1.52374724681547,-1.64847463220065,-1.09539696737969,-0.203060001724038,10.4688049593357,-0.411428740852269,-0.0999821628402255,0.608046722527283,0.416389908920075,-0.272363737473449,9.9174249429878,2.96598218682023,0.282993675478643,STAIR_UP
3.4,-1.02797727567119,1.76671904685907,0.120283279956835,4.06984371620473,-0.613309547155682,-1.38569189510971,-1.61844638394231,-0.984960941009817,-0.127438109519207,11.0390903060575,0.0272462747565682,-0.35189699336285,0.558081559142527,0.4022991280496,-0.226225185672463,10.2669144141314,3.10877561818962,0.43331920673527,STAIR_UP
3.41,-1.14380120509881,1.48808639976514,0.120694744166359,2.39866743012057,-0.676190072750002,-1.45857007368553,-1.44238723809915,-0.987223480105856,-0.0800081419993416,10.6847428009256,-0.126815470109774,-0.763788102963375,0.499242404924754,0.403157030020761,-0.194566640986454,10.2646251670488,3.01046741983425,0.558404571485929,STAIR_UP
3.42,-0.832324231356947,0.845040393889346,0.0811658297008586,0.352407290957474,-1.53410909298541,-1.82022824249698,-1.39825049941871,-0.997463403020763,-0.104075548306343,10.1971604877103,-0.793434156950219,-1.13195928484311,0.416087823409465,0.375415773529555,-0.205738981923461,9.93727442016984,2.79881446112727,0.981720868721833,STAIR_UP
3.43,-0.832324231356947,0.845040393889346,0.0811658297008586,0.352407290957474,-1.53410909298541,-1.82022824249698,-1.47292269804411,-1.02012673496979,-0.227766643833216,10.5992061581356,-1.87690285079598,-1.64955697033167,0.337435880717796,0.303071824141104,-0.259301840546439,9.98594663443573,2.76135160880641,1.23031689847389,STAIR_UP
3.44,-0.325771030820751,0.32874789871923,0.0648335560921789,0.468142147647431,-0.764758810960852,-0.874859003329118,-1.42770085689659,-1.00850366425223,-0.36506728208584,11.0933241954705,-2.43092015816086,-2.06163931905948,0.308600892388494,0.241343081610184,-0.307497828952364,10.2180199640138,2.97196161578772,1.15940125521418,STAIR_UP
3.45,-0.0670906716808545,-0.0026368783235471,0.0753362343771751,1.40485584011975,-1.08137183069728,0.615673431324,-1.21647814469003,-1.0031163341711,-0.465668343980056,11.5758097350741,-2.734144623478,-2.57792555311428,0.297671205525011,0.189394224131571,-0.343720999466147,10.5856424276615,3.05630518926198,0.972334270474478,STAIR_UP
3.46,0.0974010426129787,-0.271083386775168,0.0701470577709485,1.80433636308096,-1.45604037459705,2.06238935970762,-0.896155024801417,-0.972482175933801,-0.511548417797166,12.2594012191747,-3.1635725175561,-2.88752704895253,0.294583456276054,0.14770034888975,-0.353248326869798,10.8903057343239,3.23141506056248,0.631807207379866,STAIR_UP
3.47,0.209298065624035,-0.594986421049637,0.0235201388573081,1.71066650497458,-0.869524448911476,2.86466784271244,-0.563456106079292,-0.912236338878977,-0.506013484192086,13.4789323619981,-3.62803723446419,-2.75072035724317,0.307067609198579,0.121273938262716,-0.321536241041902,10.8562959240114,3.48182262808435,0.323125775919424,STAIR_UP
3.48,0.318115940823992,-1.04762988785079,-0.0427901076645194,1.58512873609736,-0.13250681001487,2.49372486991891,-0.237590972466554,-0.733617721717523,-0.493633052184315,14.9062702568368,-3.44234311445429,-2.39105070290442,0.278084247673738,0.0775611070575101,-0.265212815010634,10.9484362328322,3.68309513375854,0.546990232904203,STAIR_UP
3.49,0.318115940823992,-1.04762988785079,-0.0427901076645194,1.58512873609736,-0.13250681001487,2.49372486991891,0.108004743549543,-0.4702928500178,-0.466670847789234,15.7054781944162,-2.30434086398832,-1.81380274714333,0.201378803526479,-0.0037846484925009,-0.180940760623616,11.0247367053981,4.10485159430237,0.141142113424234,STAIR_UP
3.5,0.379967601619487,-1.57803778016316,-0.11077581874161,2.17957564643561,0.632645584802277,1.67244346752411,0.411686399290757,-0.278806892108706,-0.422363395418831,14.8479957201168,-0.752185510592985,-1.09017859266999,0.124958021924461,-0.0477997193270673,-0.0767976588276951,11.3663523898198,4.50841048571475,-0.123395012309887,STAIR_UP
3.51,0.334136580561109,-1.88509642086519,-0.20200575329728,3.32541418860665,0.666989014011128,1.18789143497128,0.602869048722337,-0.221139619953649,-0.447360500484583,14.2649459111968,0.13635997751491,-0.61429376004661,0.0428182869291646,-0.0757851293846026,0.0252639938334545,11.7242484011261,4.83441460367449,-0.179044977279967,STAIR_UP
3.52,0.23118031118542,-1.85918200469132,-0.2928561323161,4.76949930988583,0.0540950455435679,2.14905415295653,0.639653875965228,-0.191098031055966,-0.508603084473708,14.491764594214,0.274223198240285,0.107360534372956,-0.01628973523902,-0.111905623966444,0.114937034826128,12.1071035375343,5.06373755813834,0.106827514045065,STAIR_UP
3.53,0.476199472710494,-1.60591089124508,-0.434056882474985,7.09467288884157,-0.256077993276664,5.04432809370735,0.570864658264003,-0.192710654951613,-0.594397198128467,14.7676164997028,0.0816760894616205,0.704796116777388,-0.0620420415367132,-0.164597581384102,0.1762388345118,12.5024399055275,5.25479338464991,0.235562062512994,STAIR_UP
3.54,0.804222954454064,-2.03019627887444,-0.532782592327294,9.31032813377272,1.93190069946371,4.52362583688637,0.484554569247702,-0.189459675070247,-0.678059648390945,14.9901807174536,0.0320860255057902,1.05875995452607,-0.108938776794585,-0.196483429616973,0.216433385483023,13.0126414980555,5.33743630818954,0.605070131656515,STAIR_UP
