time,left_angular_velocity_x,left_angular_velocity_y,left_angular_velocity_z,left_linear_acceleration_x,left_linear_acceleration_y,left_linear_acceleration_z,right_angular_velocity_x,right_angular_velocity_y,right_angular_velocity_z,right_linear_acceleration_x,right_linear_acceleration_y,right_linear_acceleration_z,pelvis_angular_velocity_x,pelvis_angular_velocity_y,pelvis_angular_velocity_z,pelvis_linear_acceleration_x,pelvis_linear_acceleration_y,pelvis_linear_acceleration_z,label
0.01,0.0495052364816628,0.0274009387441474,-0.0175592372884777,9.72650194594411,0.108375477233461,-1.61718280741424,-0.0356019922793744,-0.0483080965459166,-0.0138902270800819,9.53731827957488,0.493179602109595,-2.1763658469118,-0.0497099530581502,0.0057812136282722,0.0063042129347058,9.59686025925039,1.0180590429642,-0.659827813948236,STAIR_UP
0.02,0.0403611645385055,0.0153306566302394,-0.0131162383642685,9.64747607121404,0.120360915718001,-1.68930143118427,-0.0378952754749104,-0.0544739403051755,-0.0088690781978835,9.51419086986257,0.568165529651116,-2.16946727194229,-0.0568472181670643,-0.009222615622172,0.0032300844360764,9.61606611013363,1.04655334763183,-0.724095731162384,STAIR_UP
0.03,0.0145607135383111,-0.0037517188895911,-0.0042880699008243,9.62212518420254,0.0716358812304007,-1.60466418586278,-0.0350347761233897,-0.0464141730689689,-0.0077195252247897,9.49858465519887,0.689718019295775,-2.13544644274006,-0.0562778174990889,-0.0139369796814827,-0.0011799429719924,9.62231810351408,1.04519496671728,-0.778815378573777,STAIR_UP
0.04,-0.0062853805177832,-0.0247009427100073,0.0067022487753373,9.57151277774694,0.0071063360865588,-1.7225967391797,-0.033382917099588,-0.0488633794942404,-0.0059737523799721,9.46231641801992,0.669391556810635,-2.07012145138043,-0.0643038123480101,-0.0147717121166458,-0.0112266136757745,9.63842290613104,1.02810459129664,-0.755125944675473,STAIR_UP
0.05,-0.0245710818801922,-0.0488364759380874,0.0155942079996343,9.59673287124049,-0.0461192899111597,-1.71348387019784,-0.0623459413312215,-0.0420717172974051,0.0027116791745551,9.45564911036521,0.622569399102614,-1.98923160094789,-0.0787418200659242,-0.0272777944108853,-0.0246396703555687,9.68680746123426,0.953514529461232,-0.748483115477472,STAIR_UP
0.06,-0.0476957878887935,-0.049216048937475,0.0166742773656867,9.61511492358325,0.0482659604551843,-1.69216104641085,-0.108190826466658,-0.0511907248343701,0.0015547754963342,9.50613688819028,0.524752453451413,-1.98970203653947,-0.0856968318411644,-0.03324988100768,-0.0278664020201469,9.70892233562129,0.936936075399181,-0.780431158504729,STAIR_UP
0.07,-0.05741228330853,-0.0394882693721305,0.0202539912775847,9.64879696827941,-0.0339262602233759,-1.58473281799104,-0.113044350738724,-0.0553325893271358,0.0102897568413094,9.55700447612374,0.413707701890432,-1.85786256917209,-0.090255902294919,-0.0269660651952508,-0.0370211430894835,9.74109715427858,0.915482888612571,-0.701074226034629,STAIR_UP
0.08,-0.0884918977772689,-0.0378569668467955,0.0197400009668301,9.69954043727911,-0.0923436676781992,-1.50752192213653,-0.0845990368351272,-0.0680562866080491,0.0067664164867343,9.66784371501157,0.207798253629403,-1.88931058837672,-0.108050885599514,-0.0072424324720687,-0.0410213169339198,9.78597455913032,0.902816484823734,-0.696130850198828,STAIR_UP
0.09,-0.105731469129029,-0.0183804611110521,0.0218632280922194,9.74225098127526,-0.196095934927195,-1.5082456494407,-0.0745417685800254,-0.053738649299152,0.0055496073935118,9.70810348532682,0.198308055922047,-1.95454957709009,-0.126635424014241,0.0164045805685335,-0.0419135472968634,9.88278316252814,0.89410193130978,-0.672046077237216,STAIR_UP
0.1,-0.112398908872943,-0.0054408280866124,0.015675228364437,9.73742381291583,-0.393818601724199,-1.47104791763519,-0.0368115871833694,-0.0459036014633253,0.0023712623411128,9.69784524938352,0.274303862539758,-1.8887501849357,-0.134857187844902,0.0363420934326271,-0.0392031682132054,9.8535625021086,0.897858597474985,-0.649616449364655,STAIR_UP
0.11,-0.0952622171929823,-0.0094949764243756,0.0170990904481057,9.68123926007075,-0.533540642099344,-1.51458035561539,-0.0095001355939148,-0.0171389832179897,-0.0006214981377987,9.70637193093225,0.26642892656173,-1.92401131371252,-0.130786264143507,0.0367418171615867,-0.0341594076477924,9.84071033768417,0.871914816394493,-0.634618734575855,STAIR_UP
0.12,-0.0767979191197905,-0.0167140888951667,0.0181849558601908,9.64982996098718,-0.549448926905114,-1.66273611560114,-0.0026832351749097,0.0081222185167855,0.0019250890867508,9.64851625053456,0.398225287081591,-1.93739881432397,-0.120539064121698,0.0240008441974284,-0.0304484276027824,9.7896131090694,0.754149397179294,-0.589894494351001,STAIR_UP
0.13,-0.0465082402991017,-0.0275907500198799,0.0169994850451921,9.60871868562496,-0.367525656312179,-1.8182468903701,-0.0086678574209079,0.0245186371151552,0.0091609493588075,9.60081881300595,0.574641011856049,-1.80973872375618,-0.102306580013184,0.0130724442075158,-0.0209833935339702,9.70588341530158,0.672210704620455,-0.595281965289087,STAIR_UP
0.14,-0.0074920820221112,-0.0388297204008647,0.0126476724501946,9.59916200193531,-0.292031838333849,-1.86429651929811,-0.0418040019376043,0.029055760627546,0.0023243251387053,9.47859698339466,0.617657180023632,-1.64954254234544,-0.0817671753455548,-0.0013460019251289,-0.02227715589708,9.65762519813218,0.633342960795501,-0.543944198316723,STAIR_UP
0.15,0.0113072376413607,-0.0351484320495135,0.0124275423059448,9.58934430283956,-0.189267814703305,-1.98673068602418,-0.0922478055305096,0.0015632079184542,0.0039710461631176,9.38212908379481,0.664578281238109,-1.85300382298066,-0.0619988146652292,0.0029094215859445,-0.0113272449278788,9.6801726762433,0.605145129045274,-0.606171484967295,STAIR_UP
0.16,0.0184464132084025,-0.0369922882994368,0.0095125950362276,9.60849104425155,-0.150619956171113,-1.81133280542551,-0.113927624887186,-0.017128792846781,0.0020459260765798,9.54508417089534,0.426951549684894,-1.83872956121082,-0.043911604773511,0.0022711109925647,-0.0118757456026977,9.65104903460136,0.594498613729209,-0.619774048010121,STAIR_UP
0.17,0.0301704605152118,-0.0375006933209139,0.005795963549801,9.60554829527301,-0.231131313568626,-1.66352374203219,-0.107690333540049,-0.0322438571977518,0.003046834598756,9.53094091549171,0.280690862708805,-1.95488555577643,-0.0131302240758999,0.0076754282537015,-0.0040396289900316,9.67011841925922,0.635764764646343,-0.650590861517165,STAIR_UP
0.18,0.0127828655673788,-0.0428015300754576,0.0057216218693702,9.63676482789519,-0.338200394027455,-1.55709995805037,-0.0831689227575072,-0.0352252852729403,0.0074052468714902,9.5970220653056,0.209042081449014,-1.93915536353809,0.0090818263093399,0.0185008370321955,-0.0082142234882283,9.6928826323606,0.649420614950668,-0.580916464524033,STAIR_UP
0.19,-0.0086799429063188,-0.0354410479779642,0.0052167734811078,9.70414318002921,-0.298401451657538,-1.53088166758301,-0.0274511009256599,-0.0253250427698578,0.0026838151157742,9.64757938534723,0.24399815263895,-1.86233975742494,0.0233062314172556,0.025485468219246,-0.0096053534709996,9.78650014568798,0.707119526051077,-0.524954539382393,STAIR_UP
0.2,-0.0255178117451817,-0.006375812250702,-0.0017134004449151,9.73775980462176,-0.231105722239471,-1.46182494570204,0.0133206041279547,-0.0102111664968704,-0.0006041599621998,9.71659576807723,0.262235877267605,-1.84906249636276,0.0315407413393122,0.0300976516933264,-0.0110464550107506,9.79930078955853,0.738466970864167,-0.532479885115777,STAIR_UP
0.21,-0.0108569508268118,0.0164987592170579,-0.0130590224718217,9.76303987760957,-0.227562674570041,-1.60146169711125,0.030363904986614,0.0151206961416929,-0.0051631912801759,9.77677237995647,0.355280138528575,-1.763017493227,0.0443469097687198,0.0309291947553777,-0.0140421234351958,9.77308063216483,0.796882305877063,-0.566917779870155,STAIR_UP
0.22,0.0163567122143138,0.0339863169477915,-0.0222056123044781,9.72627719940297,-0.148718938671284,-1.57875127727219,0.0465570831054603,0.0305478456712563,-0.0112602969479569,9.64745402968554,0.377750470155516,-1.78463222398757,0.0524499093185472,0.0280318069041013,-0.0217932393197547,9.73136587288912,0.744917504440416,-0.601331768412882,STAIR_UP
0.23,0.0400876301297678,0.0282092001288687,-0.0267319290366568,9.63068471543046,-0.233445888098217,-1.59884053322248,0.0477535871363574,0.0289182264154199,-0.0172588836347239,9.50639043436922,0.384379314704157,-1.73115725602535,0.0610272116964479,0.0246499971479521,-0.0183176512437002,9.73133411875974,0.757390671404503,-0.566418015983215,STAIR_UP
0.24,0.0367938834449559,0.003336778340098,-0.020637990195895,9.63658026049441,-0.296956448431555,-1.83992856438255,0.0445785036437651,0.0365261333284924,-0.0222772052062385,9.46023653956693,0.547560125054791,-1.94831024581689,0.0580002659974476,0.0288565984089028,-0.0244037563624419,9.68962654614672,0.705630500441289,-0.601134916545092,STAIR_UP
0.25,0.0345703701191198,-0.0293478529702414,-0.0149623734486821,9.59042017030153,-0.236523305183357,-1.97599452822624,0.0333515059239568,0.0191679677241865,-0.0231118823585567,9.39015745468933,0.451580053395873,-1.97824338019384,0.0595307473236687,0.0257414448045456,-0.0170769161987995,9.734978160374,0.701153537728735,-0.560389413850585,STAIR_UP
0.26,0.0214617644018043,-0.0366323606100762,-0.0081035852703121,9.60423344411705,-0.263830463554454,-1.93441969124321,0.037296389037841,0.0066511071708531,-0.0204556033732206,9.48156443970572,0.398238199991503,-1.97446904184703,0.0587420125378009,0.03167745076075,-0.0225239132201618,9.7188412568364,0.699192508647623,-0.647847771137259,STAIR_UP
0.27,0.0186207623425611,-0.0286917689759456,-0.0089072725855163,9.62891044137467,-0.194263277806733,-1.88924330117312,0.061654623300746,-0.0124880206961816,-0.0191973470008417,9.5477651957293,0.460174104234271,-1.87923687888978,0.0621889149423381,0.039297055178334,-0.0237473187405883,9.75791131222978,0.674282051389518,-0.617573378121725,STAIR_UP
0.28,0.026491595946116,-0.0322572636574716,-0.0073479348881641,9.68800091048347,-0.131936942861162,-1.752765402253,0.0595750324083799,-0.0342419239103969,-0.0193843462191481,9.61790767454343,0.491340859130702,-1.8879137590801,0.0742134575868164,0.0440484057585501,-0.0236239057463394,9.76441252461222,0.685919897082564,-0.635415884008795,STAIR_UP
0.29,0.0312580349516943,-0.0027564423058541,-0.0151560756451416,9.71851092595282,-0.0608219614010575,-1.76050676382331,0.0513876075455434,-0.0381921967744925,-0.0221343732401138,9.67752613873222,0.451833601309812,-1.88278038916709,0.0824770553718052,0.0476554861281983,-0.0207748596651063,9.77713095056812,0.729029332513895,-0.608920068514105,STAIR_UP
0.3,0.0448925830867778,0.0091127628826021,-0.0204376042681857,9.71846910211867,-0.0126090708394628,-1.70413082629893,0.0738428624473989,-0.0210297984720908,-0.0138036584331378,9.54985516387263,0.498627978643914,-1.95207278710821,0.0919236346954028,0.0551414084971536,-0.0112459102011585,9.80016803348511,0.710565911065688,-0.634299232765261,STAIR_UP
0.31,0.0380905314211525,0.0048583492813774,-0.0224130437393792,9.59718459190167,-0.0059162694709179,-1.4741315962389,0.0907239364000688,-0.0131898311885341,-0.0207422311567942,9.50698771398259,0.429853168854262,-1.91160703782887,0.106312137677976,0.0538758779258115,-0.0111475306161779,9.79075631958412,0.727851914009594,-0.708275583227405,STAIR_UP
0.32,0.0238026677387209,-0.0160407976801473,-0.0265823001347666,9.54285731822514,-0.0177294695020847,-1.61222811290087,0.067331850929169,0.0022926595146947,-0.0161154335294057,9.41731552376182,0.362527391699685,-2.01284553557845,0.121559399539208,0.0634712353701566,-0.0050223420815214,9.74961877363421,0.674046708420061,-0.740036901925422,STAIR_UP
0.33,-0.0110064428747911,-0.0253258228829139,-0.0188787673437589,9.59340692071453,-0.0187642061125801,-1.68596612236273,0.0600838622647,0.0109257588606413,-0.0189091498346775,9.48886905305156,0.379969369759712,-1.88574128921392,0.137248314406176,0.058338241415507,0.001096634678959,9.76276880442467,0.703694957111025,-0.745247494077016,STAIR_UP
0.34,-0.0245714160517149,-0.0058858562142324,-0.0220578764008653,9.62500842338111,-0.0949635830590789,-1.6532163133089,0.0932522459128886,0.0105230032834908,-0.0234555523682191,9.6515160488528,0.410340190034977,-1.71729696727235,0.157955785376658,0.0612201000932216,-0.0016497557763129,9.75926583814008,0.773447882262656,-0.709967963750156,STAIR_UP
0.35,-0.040671489067353,0.0243245424537183,-0.016697016451939,9.68639749960979,-0.320916543092862,-1.64080171973111,0.108363060968344,0.0168013373354243,-0.0298110922706081,9.80068917404066,0.451901487812845,-1.74014882994925,0.178435849753445,0.061832268411669,0.0007038407908605,9.80364107897922,0.906707571762815,-0.659894215412466,STAIR_UP
0.36,-0.013219639996391,0.0337017512239002,-0.0137171567503413,9.80657053535059,-0.336151124649619,-1.52756885365051,0.143052814305673,0.0261768528017811,-0.0362533619650813,9.90756616237604,0.425016726523636,-1.71959056528881,0.189542807781705,0.069730781082208,0.0026243328975963,9.82929536197896,0.977344532702668,-0.643294786915973,STAIR_UP
0.37,-0.0116730455314318,0.0445853341769693,-0.0168036820054049,9.8209367137841,-0.240580858004792,-1.44318109850465,0.182039648716999,0.0601506725752609,-0.0259070835773902,9.90914901140535,0.504553954906007,-1.69942636402551,0.175656657349884,0.0803055831379835,0.0058523675309566,9.88114062760079,0.991057607940336,-0.587741529189244,STAIR_UP
0.38,-0.0205573034801955,0.0622038278952411,-0.0193370963015708,9.76185505196113,-0.206434234992542,-1.46525454643509,0.20221459515745,0.0760135345846654,-0.0136694588507683,9.71135282654166,0.720232013986391,-1.64086531849281,0.160464996561235,0.0932575186982836,0.0094653454552976,9.86834489744414,0.981809061382285,-0.505166196390941,STAIR_UP
0.39,-0.0134640441802453,0.0494085045314051,-0.0194442233430259,9.63790701966086,-0.235661575848916,-1.572296944385,0.18415441607325,0.0468995135368236,-0.0212891387105035,9.61162937431316,0.781695484274239,-1.60765728725051,0.13324597050873,0.0927300573139837,0.0165524567901991,9.75518714972605,1.03345813844832,-0.480893250334665,STAIR_UP
0.4,-0.0093608706924382,0.0244646669946468,-0.0240083687434984,9.59250799068319,-0.154531711616505,-1.57150633770921,0.0986366313655716,0.0282022979922714,-0.0185775821759851,9.60180272944546,0.814142502024516,-1.83934671324079,0.112056385708557,0.095559842012277,0.0194087151115136,9.73351392425641,1.02806828149905,-0.508768860106895,STAIR_UP
0.41,0.0155927105135175,0.0106368572196283,-0.0196440104821007,9.64617905150963,-0.084038438358282,-1.58451213955225,0.0236069703661221,-0.0047396022311932,-0.0288787855975595,9.50252464588016,0.834573914099911,-2.00218867036038,0.0952732980363527,0.0855724675871578,0.0209407845294431,9.60880837595864,1.01447283732553,-0.57187410749835,STAIR_UP
0.42,0.0500895298571167,-0.0037129869569642,-0.0139301769906886,9.65484324993019,-0.104459357653441,-1.69360398079567,-0.0229515459137328,-0.0212544933697841,-0.0239516368227318,9.41929604102691,0.894831763272141,-2.1724242648557,0.0727162359336962,0.0759377738774761,0.0151456164574691,9.51300027686119,1.01358009672128,-0.62164559672934,STAIR_UP
0.43,0.070085455323168,-0.0156729393233916,-0.0117072158409328,9.71658450531463,-0.0375358304027076,-1.68643758597978,-0.0392158698979804,-0.0414404928596727,-0.0257146664492138,9.33090835535147,0.681867889183731,-2.21667033550044,0.0607325057230299,0.0634313267078836,0.0143675383907591,9.54652820284473,0.953037834503798,-0.630993391376327,STAIR_UP
0.44,0.0823745732642483,-0.0209853451016829,-0.0109940027220712,9.65834290308836,0.11301256449731,-1.60273870026827,-0.0404318569085991,-0.0532801961050145,-0.0242982404164666,9.34956310294248,0.429374044554267,-2.10991557618395,0.0614902950855622,0.0431788845460236,0.0087416788759131,9.59367199375539,0.899865627122821,-0.717375904750471,STAIR_UP
0.45,0.0937209355758003,-0.0386355096910977,-0.0119952117902202,9.59694636894209,0.266465733488224,-1.59747152660362,-0.0170830564725061,-0.0517779434139563,-0.0245376895118023,9.40028946016357,0.0274212381550171,-2.08481403553027,0.069471706135786,0.029716794928941,0.0077167321315342,9.72774213135159,0.87268527021779,-0.794946989326899,STAIR_UP
0.46,0.0767846984335406,-0.0409278898817887,-0.0105035706986904,9.54198690047814,0.319528476977398,-1.55100857450019,0.0126844711937607,-0.039074307616397,-0.0248681326383107,9.50109493773244,0.101652075717166,-1.93093274178851,0.0819312225522643,0.0284522553838389,0.0043224486281471,9.79285029816998,0.89413091340013,-0.818271969958925,STAIR_UP
0.47,0.0215625988942767,-0.0455772549275863,-0.0222455320896549,9.54472038450644,0.290366745937438,-1.40190328577071,0.0721034007772633,-0.0298486310657499,-0.0285415902546216,9.62578291305036,0.114110250405273,-1.80873308347548,0.0840334133132769,0.0308424158752743,-0.002782245736254,9.84362188244425,0.920775357869734,-0.733468630552074,STAIR_UP
0.48,-0.0368883097081373,-0.0395376913719632,-0.0206718345531929,9.6638135751172,0.208414000635082,-1.48342201914763,0.11761088331262,0.0059067665150982,-0.0253293849338502,9.67013436156261,-0.0311368831005162,-1.8323746064541,0.0919080530656028,0.0472825547838418,0.0085686942759618,9.86296530783723,0.971012973157437,-0.730217838085282,STAIR_UP
0.49,-0.108881952962178,-0.0234901500247478,-0.0194374430831528,9.72115199923419,0.128052526591849,-1.38353975816692,0.142714691947375,0.0063333563993249,-0.0246229610342525,9.64784570821813,0.133146871904253,-1.93786392978574,0.0827075682770103,0.0635976554010093,0.0078298004414565,9.85469302281359,1.00723764785037,-0.574129705593741,STAIR_UP
0.5,-0.164874043856072,-0.0099178465241146,-0.0149770835569735,9.71256048360585,0.0861182672298273,-1.46375559390904,0.180885979894018,0.0074832731804115,-0.0363823818495338,9.41193472730343,0.113707785504211,-2.01813694258382,0.0662131877178578,0.0624897092625026,0.0147376925060626,9.75371414146798,1.10159341443662,-0.531606237820872,STAIR_UP
0.51,-0.198392343382604,0.0149028951510422,-0.0096635546091623,9.69565232575027,0.0463731521835467,-1.56498614005789,0.215564654373909,-0.0202037221778231,-0.0567923945088547,9.42126325961914,-0.0187562603474613,-2.2584661582483,0.0665771740340941,0.056473395867438,0.0111851611028363,9.66468808017314,1.11019546843043,-0.605233667646774,STAIR_UP
0.52,-0.222948266370649,0.0084648278680448,-0.0146384853564201,9.6464966323685,-0.0956145696820534,-1.45206296741144,0.231507400406469,-0.022813479700219,-0.0631630895456309,9.52032376610247,0.0546272440411925,-2.2148375255834,0.0732976058461155,0.0550456377603518,0.0026260194305172,9.62340521984956,1.0663866800282,-0.604194501200984,STAIR_UP
0.53,-0.229674988191187,-0.0099631745701567,-0.0123802146254724,9.64468795272709,-0.189900286886966,-1.43355002874257,0.273233185797641,-0.0575128987037677,-0.0690318652251587,9.40588816036984,0.261885653244534,-2.19695125313127,0.0802950796082577,0.0461714585135181,-0.0030569952021269,9.66159571797554,1.04039397741783,-0.737158402610044,STAIR_UP
0.54,-0.228272985850502,-0.0272967321695092,-0.0084978011602913,9.64675528816906,-0.11461196520338,-1.37834227252822,0.304467527194665,-0.0774259599297161,-0.0820835446285163,9.27726857298962,0.216372061629071,-2.15298310887187,0.0850337385938112,0.0355549339254755,-0.0093808811997809,9.74940725716279,1.05440263216614,-0.755949685804652,STAIR_UP
0.55,-0.255042539443687,-0.0447728487757193,-0.005657044975723,9.73076451527114,-0.0459041701123894,-1.3823058925384,0.331074806261332,-0.0772624953076103,-0.0972602200387642,9.31019325434556,0.0691291490625792,-2.12747070798592,0.0713806948250788,0.0319230478417524,-0.0083678809025167,9.7398258165551,1.09325657395016,-0.767798860284756,STAIR_UP
0.56,-0.262977325020861,-0.059817552233412,-0.0108909777815276,9.76278365185926,-0.148604073200517,-1.27843244224767,0.345235700118736,-0.0753473974002694,-0.113986197440419,9.54421742245032,0.0136981665815996,-2.06966378407822,0.0674321827189054,0.0319173797525576,-0.0155724131360025,9.71431736827021,1.15000627149102,-0.80493197071542,STAIR_UP
0.57,-0.27914167210472,-0.0652550340994957,-0.0127298864210932,9.68075026789148,-0.212946581227213,-1.20794621605941,0.368001512738763,-0.0653064560883431,-0.12143541914973,9.74571242031491,-0.089215332311354,-1.65232643771373,0.0627045297365877,0.0189369228816617,-0.0144888708753139,9.71686679436451,1.2315559139195,-0.796014498466894,STAIR_UP
0.58,-0.279927419592639,-0.0588654956804652,-0.0185533590199489,9.52700690968382,-0.284338647810968,-1.32081640436771,0.366466262034292,-0.0322112455996782,-0.114788460705941,9.9102236679383,0.1556375591027,-1.66124701570302,0.0467068095911345,0.0213232390000553,-0.0135444131250932,9.71573841886206,1.37268192557033,-0.791201033206231,STAIR_UP
0.59,-0.275703340297388,-0.0515251941894704,-0.014381495468867,9.58827236425273,-0.258423798013521,-1.37472752667258,0.373075340008395,-0.023935562235908,-0.102374925871613,9.88788188741878,0.792067695837457,-1.55968647506972,0.0306774954839589,0.023238246590264,-0.010460351240772,9.69560072124152,1.46257003611891,-0.786002637927893,STAIR_UP
0.6,-0.268396627077868,-0.0427575556936523,-0.0107210375806534,9.62251118693351,-0.308371372865064,-1.34624420913435,0.351613088824097,-0.0230187939370611,-0.0923816997811479,9.79031254460523,0.804783133083594,-1.48292109009955,0.0194262148661533,0.0299018489947963,-0.0069036912724794,9.68527271932899,1.51370549637934,-0.765832040884478,STAIR_UP
0.61,-0.278773744423009,-0.0345888837181752,-0.0099948809612021,9.71973257118217,-0.412747715540133,-1.34686385167617,0.263402721607509,-0.0058402699785604,-0.0737095769172793,9.808732282122,0.800034376801284,-1.57229429821011,0.0044774496726391,0.0522497191229908,-0.0003055914151053,9.63957375749978,1.54272847549033,-0.736802206777572,STAIR_UP
0.62,-0.290543890266034,-0.0330344298674921,0.0016200038287926,9.88312515912768,-0.372964200573489,-1.41036841931831,0.167788041812187,0.0238499680806405,-0.0513958177566534,9.62890374754475,0.935015317727406,-1.51523976789126,-0.0124489992327703,0.0832905212258686,-0.0010193141253783,9.61201489963757,1.51822526284265,-0.776948903575489,STAIR_UP
0.63,-0.282456810779416,-0.02728381602992,0.0019275795344557,9.84356993388569,-0.437482002177553,-1.4330892125026,0.0754916885901719,-0.0035761507054976,-0.0422213739552847,9.35617586236556,0.918217165409808,-1.8122467503073,-0.0464169111698535,0.128585915229871,-0.002802500822522,9.59279430088666,1.36294656945324,-0.838171051497559,STAIR_UP
0.64,-0.254112924990776,-0.0362726184681166,-0.0022074714046084,9.75519594232712,-0.492609668192701,-1.51533256370513,0.0006235455319835,-0.0599950630218678,-0.0555596531331845,9.38005725265523,0.728469536679781,-2.04853702711077,-0.0630279754339224,0.160415794854088,-0.0021656504046032,9.59758500985162,1.30405790374721,-0.81993417633341,STAIR_UP
0.65,-0.219899439857548,-0.056819608206057,0.0028984821440284,9.66227651299662,-0.626429576304869,-1.52744064424078,-0.032863521084632,-0.0883959275420692,-0.0586500438218052,9.41414675591502,0.66655721433385,-2.00560957781347,-0.0776363031655137,0.16911976132783,-0.0052988380031894,9.63973113763162,1.24333167391966,-0.871481488752332,STAIR_UP
0.66,-0.183680305153611,-0.0803178830780244,0.0027862090427918,9.4712717001945,-0.606935120661588,-1.48645228055586,-0.0779785703980384,-0.0985973664314997,-0.0660664705214674,9.66000965704545,0.693239936887429,-1.85576228681417,-0.0747620966562158,0.164682886133623,-0.0025416246469471,9.68120921293691,1.19464707371815,-0.890296075885778,STAIR_UP
0.67,-0.129856813896488,-0.0890024852149728,0.0015754363849088,9.4576682710693,-0.551086431836007,-1.53702182640352,-0.0891002213079335,-0.0921026781126036,-0.0776075519968959,9.65316653831221,0.926280715157863,-1.91543285774693,-0.0489807906731832,0.123351203411918,0.0025796964469552,9.6913050233197,1.18061996851993,-0.961975227271754,STAIR_UP
0.68,-0.0943670337859469,-0.099650364823497,-0.0056368112160201,9.437981548375,-0.334154826427059,-1.43499814685797,-0.0951359176548655,-0.0876361115185245,-0.0960597471350707,9.63327608892857,0.767035793713127,-1.70852568319493,-0.02541107605142,0.0878830437781986,0.013246590377071,9.72730956760969,1.22600319690722,-1.05893787173807,STAIR_UP
0.69,-0.0341954362631856,-0.11570167347256,-0.0209259131595066,9.43976035801052,-0.0882122131100304,-1.417644127746,-0.116227471814899,-0.0516037008225152,-0.09673429065229,9.63116771502392,0.407342741353215,-1.5464346496172,-0.0161771750812357,0.0699940952230748,0.0261290137718707,9.87342904077278,1.26354468210156,-1.04252018730999,STAIR_UP
0.7,-0.0195735090596231,-0.129926162955484,-0.0306202224085796,9.45871894381226,0.0228880411753516,-1.26619688536494,-0.140328594454035,-0.0202730656349971,-0.0986713763673303,9.71488095477536,0.136174010915784,-1.55262113610717,-0.019099951047028,0.0617715896180835,0.0498565272003203,9.9071959396297,1.31722344406227,-0.94536656179573,STAIR_UP
0.71,-0.0331116452301251,-0.136914619015148,-0.034600541614273,9.56549482699808,0.188910452809014,-1.30194093408314,-0.130445861014176,0.0139413322074172,-0.0888720951970357,9.75081781068042,0.109252031799555,-1.68046545406423,-0.0297308874029939,0.0837909943540035,0.0749295863820795,9.88905489811012,1.37620109338348,-0.833453659676905,STAIR_UP
0.72,-0.0796933336496954,-0.122216897514019,-0.0374131505892932,9.62543587194461,0.389768021500207,-1.39414537772857,-0.0887977668157582,0.033883101259237,-0.0771604715214291,9.64194455211642,0.121801845890908,-1.65372065468761,-0.0633550321904676,0.112008511508711,0.083962015199862,9.81196606096389,1.43221772797063,-0.683375570151703,STAIR_UP
0.73,-0.130733449804402,-0.101082919814151,-0.0405745049793778,9.68094758725442,0.423406671229301,-1.52932744281632,-0.0676657724357409,0.0405062382401632,-0.066449111498955,9.54133623862777,0.232819618099847,-1.82112625089044,-0.0807702199696093,0.129917899979629,0.0971616943326872,9.73712524224511,1.46369078396994,-0.595633522331821,STAIR_UP
0.74,-0.198074171502392,-0.0821946481823186,-0.046892615342674,9.62354820959006,0.292126883346832,-1.58513806923397,-0.0702800995120668,0.0236935035473411,-0.063870158693318,9.55374964002071,0.355320364861995,-1.92307958940135,-0.10271281323758,0.129957794607315,0.0978911321211064,9.66561689874552,1.45931704280224,-0.604186838893092,STAIR_UP
0.75,-0.247118335399405,-0.0908685697006839,-0.0487454562702753,9.47639006838408,0.0045822058572936,-1.70396928995059,-0.087413050178585,0.0067996069460815,-0.0711986279049737,9.54664785598425,0.486032129559143,-1.94083065503782,-0.103041022458377,0.112861467539425,0.0940159004424094,9.60955179390874,1.46201191887959,-0.688925169808231,STAIR_UP
0.76,-0.283968519222913,-0.123711677497028,-0.0464057208695048,9.4567720983281,-0.155729795481039,-1.72854310780674,-0.103687581488529,0.0126520753971333,-0.0741679763176308,9.6093893002565,0.619209682839119,-1.79012150698117,-0.0978635014280674,0.0878351622080152,0.0912677752772321,9.59229038791964,1.40273163547014,-0.678458686456016,STAIR_UP
0.77,-0.288449672422925,-0.151628839806055,-0.0469977992031012,9.52271933909593,-0.501327550664075,-1.7094951856058,-0.126755181412558,0.0140595176058712,-0.0774896571516253,9.5639600792079,0.735622131454187,-1.45935166355314,-0.113248496741893,0.069048426203444,0.0907498089523079,9.62095627981837,1.31482358318488,-0.694849361584422,STAIR_UP
0.78,-0.240235598258339,-0.176603285511047,-0.0577596596689362,9.50233152882898,-0.880266786138985,-1.7707086600605,-0.178043963739298,0.0376997453737375,-0.0760486409223485,9.64486568986701,0.565009035631882,-0.80269974420027,-0.11679789638941,0.0609759990062917,0.0941335136430222,9.70346314050514,1.31102394580348,-0.685689317053278,STAIR_UP
0.79,-0.180985264877808,-0.190312839708566,-0.0545537683864549,9.59320233283229,-1.04036545123862,-1.66485934125037,-0.203875572673319,0.081447851446965,-0.0839880785084706,9.89336542284549,0.0343500157638602,-0.0479967231301023,-0.111277252384439,0.0598196109705036,0.100227289203631,9.84621572663602,1.27140081026423,-0.643789226444798,STAIR_UP
0.8,-0.137025037043092,-0.187174677394786,-0.0614819608472054,9.43330407505532,-0.909867504261922,-1.76328915191672,-0.177999148504958,0.177810409945187,-0.0726000736373291,10.3983794077515,-0.488179674660148,0.838791168241523,-0.105950821013813,0.0884034347066527,0.109723150994847,9.9137793182924,1.36250388738056,-0.4851789105898,STAIR_UP
0.81,-0.0948586525655486,-0.218591225724926,-0.0622761934733649,9.37435952126038,-0.601419070167198,-1.77256493795292,-0.100391603562385,0.328137259549449,-0.0425272028303735,10.7873702538006,-0.619432419246417,1.44505863599334,-0.0928926864599018,0.14146737849695,0.120192839942488,10.0060407096481,1.45694196381204,-0.451411701704014,STAIR_UP
0.82,-0.113240383545296,-0.23738464902947,-0.0487559710133487,9.3059201384908,-0.141513604732021,-2.07814292024857,0.0080729079616415,0.486721683029869,-0.024164075356758,11.332599989493,-0.66067271078603,1.90617411480572,-0.0735724775644144,0.197823027642106,0.126617005094964,9.96093179434292,1.56376772640364,-0.202246289654752,STAIR_UP
0.83,-0.189529242541451,-0.2273335480278,-0.0343903772107776,9.41568590215046,0.0324490717123147,-2.41756731881189,0.0975335966552788,0.697529708019664,0.0079383813274614,11.6719368267201,-0.603783208917232,2.32529677379523,-0.0896012334548287,0.245423318759616,0.123172252578441,9.87461925870763,1.5798172749671,0.0822976341091549,STAIR_UP
0.84,-0.300125177573459,-0.201712316553947,-0.0229880316403502,9.48772832967221,-0.0226253863158644,-2.37228336650135,0.170775735385974,0.881211595821477,0.0389373165630147,11.4144304682836,-0.670296836804624,2.64447060690268,-0.108968228212672,0.302607028300734,0.110233861006534,9.66265802393693,1.63554539825053,0.261202846153464,STAIR_UP
0.85,-0.421975981129014,-0.178814542705656,-0.0124129462171592,9.6325652525823,-0.0940102147220209,-2.46517183648742,0.255078398592176,1.01901224825294,0.049301563384449,11.1898358529704,-0.852463680877746,2.83762678768141,-0.136123006159003,0.374381042352156,0.0793418763835586,9.4576169624886,1.61762927760209,0.527431779664899,STAIR_UP
0.86,-0.544767391735004,-0.155776426440039,-0.0061323974755803,9.53889906505411,-0.0761064355611659,-2.4430483600553,0.349029225487618,1.16617601977923,0.0523173609216242,11.1455487678881,-0.880008293786422,2.83501200019208,-0.160141445024875,0.415801412026796,0.02145451857278,9.41248709745138,1.58139515612479,0.594010149655543,STAIR_UP
0.87,-0.579919571594636,-0.170895116282205,-0.0217014996300016,9.41565382952495,-0.345792501475733,-2.4528350826696,0.430923193365354,1.32067534575824,0.0501426944700079,11.3241464089369,-0.614259376144346,2.74542676969789,-0.165956396513669,0.426473089779712,-0.0434606097169296,9.45108282041915,1.38030629901821,0.561902587412529,STAIR_UP
0.88,-0.593784697000769,-0.144987485825284,-0.0326324122633129,9.31767488721345,-0.668927209417626,-2.64576279979662,0.449595591492711,1.44509115978939,0.0382489520990087,11.7508361371872,-0.426398088464676,2.82707323914948,-0.203635199949676,0.404429835580093,-0.114806057821019,9.4843900616876,1.17105416558198,0.662014600722266,STAIR_UP
0.89,-0.549676108854049,-0.114969576942823,-0.066151584679062,9.20235084026207,-0.603172760335897,-2.7401204589087,0.428740976328824,1.5732331410513,0.0294605578367524,12.8028569694443,-0.575139184630005,3.14511289891068,-0.240768240586043,0.353566697011651,-0.179441599553693,9.6960737144863,0.977508920721438,0.547040488485711,STAIR_UP
0.9,-0.481752898277179,-0.0953034707530363,-0.0959795109082707,9.3279944654503,-0.718539535511913,-2.75109156762681,0.383926986295833,1.7807536375126,0.0563857575230272,14.3659435624252,-1.0958285750623,3.84834921059391,-0.239252894096568,0.309500849299569,-0.232668481838773,10.0915539661088,0.747230238862198,0.363925089812358,STAIR_UP
0.91,-0.378060118451141,-0.0982913924926839,-0.130318347263635,9.5214443793016,-0.735566446475116,-2.80088230507914,0.397055241144087,2.10276490314082,0.138130677166383,15.9575304062028,-2.00211442321486,4.66462911295019,-0.193284841181982,0.294403165014392,-0.247797753405193,10.5881921309501,0.579241639190296,-0.0702448392617064,STAIR_UP
0.92,-0.265284893206145,-0.105998776531777,-0.165450509647665,9.63293884784055,-0.776033300001881,-2.79272222604054,0.460492850777921,2.43355030791687,0.256084375551514,16.8906124461209,-2.31037325363953,4.69427800876929,-0.15461373370151,0.321424894252717,-0.220861685511719,10.7623904383931,0.320500530622292,-0.129233832261583,STAIR_UP
0.93,-0.172019690662791,-0.123820210292602,-0.180167320160822,9.63174630967485,-0.210912580675207,-2.78826608018652,0.520214140184726,2.67589930533589,0.286917536923122,17.7636655309318,-1.32674650453218,4.92865291090501,-0.202027867869692,0.427227363301279,-0.162028802912443,10.6439693739269,0.26894501491047,0.346172924039246,STAIR_UP
0.94,-0.0730612531759612,-0.172590109103861,-0.200193729448826,9.50744528004712,0.335130841915128,-2.57320900410562,0.502985004613648,2.83031005960779,0.24899334377044,18.6057373976288,0.239726050376446,5.23945252719904,-0.259473365444871,0.512954823911846,-0.0889795415177977,10.4315932556348,0.404807082727985,0.228972848828117,STAIR_UP
0.95,0.0287365679201548,-0.211733296006198,-0.223288376421604,9.61637881783296,0.200210399391455,-2.26446203776478,0.442926383479346,2.84779533576685,0.167802133754893,17.513981634354,0.810633315527014,5.17648482212117,-0.250058155326341,0.536995034249612,-0.0211820097556796,10.2825901010456,0.445043308547283,0.0412903070254988,STAIR_UP
0.96,0.14990953071859,-0.197379971740997,-0.236978407201684,9.66589124591559,-0.0683344596287996,-1.84607480647301,0.465235327951416,2.68436762788036,0.0293974845161148,16.2877179560909,0.767803054449647,3.64736930133523,-0.21680256635539,0.519288097247801,0.0114978579557667,10.1930358177846,0.159128719722739,-0.365420950629515,STAIR_UP
0.97,0.256533532877557,-0.16550404794051,-0.24789038221859,9.6747416944116,0.20610503690884,-1.20077442244389,0.549906415872251,2.56836277896881,-0.0021890708110105,15.3804090777338,0.465816206531887,1.13515109877517,-0.177265426464969,0.491515312398181,0.0301510256338915,10.1183936445632,-0.332118018045564,-0.581841155300134,STAIR_UP
0.98,0.422422084724292,-0.143369782574997,-0.236408700199096,9.88625954050561,0.567015450864403,-0.765967420234119,0.701617499267115,2.483119493523,0.0252474473685516,14.0289379303674,-0.449333675597556,-0.641003880521173,-0.150234438945445,0.436539331664925,0.0559754293970719,9.96335147286248,-0.787787591063697,-0.73419044343558,STAIR_UP
0.99,0.557782063909215,-0.121150722296616,-0.213801643736091,10.0681136820149,0.936408940003548,-0.752292359495172,0.990820427569587,2.46982117168242,0.0931985804255953,12.0327964643753,-1.06808733197816,-1.97655287202373,-0.120328392209601,0.401246525542695,0.10087690859883,9.9663711456356,-1.10544834205361,-0.757763980513279,STAIR_UP
1,0.624219069480301,-0.14538837128133,-0.192261448133163,9.99188094295374,2.23596246953124,-1.12899727484015,1.40188464675197,2.48803343532942,0.134156694368581,11.7765742949224,-1.71135308585371,-3.2151999198221,-0.0610451070789987,0.339479312507958,0.150603341658083,10.1556402453421,-1.02939434818548,-0.802018781151555,STAIR_UP
1.01,0.656258319238617,-0.174942921149693,-0.169841599833843,9.94318567738616,3.0606112213649,-1.77388222387866,1.94765734399341,2.66880289933003,0.195461288930821,12.9546772629473,-1.50220527111203,-2.99160415363679,0.0099603109362678,0.246471072558293,0.198899553457702,10.2363579214123,-0.678011847279454,-0.498643197773809,STAIR_UP
1.02,0.579574213378365,-0.19947099476794,-0.151528732906985,9.43320432917228,3.38421153149963,-2.1046888261983,2.24682111216518,3.05124285300004,0.284877295725232,13.5667413917664,-0.0305475473015379,-0.807322061898392,0.0222205071630494,0.173295838275175,0.237071628224552,10.357238639738,-0.271213351891679,-0.272425140261391,STAIR_UP
1.03,0.492015119486931,-0.246966620519631,-0.10862691959219,9.3679813132866,3.19638665701456,-2.65887405207749,2.18017625688211,3.22828103671157,0.281371765172486,13.4954833977469,1.59906845530396,0.104921328250646,-0.0051210971668368,0.123367660362668,0.28495990146335,10.4999684367195,0.0550331002979074,-0.372162695088565,STAIR_UP
1.04,0.364663142523894,-0.259043937080546,-0.0593727186189706,9.34620587638935,2.75605676889838,-2.74946698041735,1.9148776726485,3.36353863840302,0.167951335332629,12.7956410208637,2.25461428110092,1.16270308154223,-0.057316743809333,0.110711477272645,0.323403639766167,10.557784263515,0.302896356086723,-0.461279456277877,STAIR_UP
1.05,0.294221977998642,-0.285308258645236,-0.0061081908684646,9.11174711683784,1.98284118212601,-2.80696746054315,1.57713162446623,3.40305100210613,0.000452049087087,10.8153850642498,2.35779549121348,2.20526575428884,-0.151762626314703,0.116996463957796,0.36877914476199,10.5106221529625,0.422777416986514,-0.541040685730319,STAIR_UP
1.06,0.236860886669982,-0.347855908351336,0.0470869129682107,9.18515774945866,1.22905867324975,-2.83984069023546,1.30783503866154,3.27271896077248,-0.176028467737172,10.2855779798982,3.09569115732669,2.0469653811794,-0.254072340484408,0.147598433858547,0.405342783196493,10.2837823169278,0.445879953769047,-0.481703444092641,STAIR_UP
1.07,0.197829782045286,-0.38829898682671,0.0881546661560614,9.1928668522713,0.785837258530522,-2.74915052193114,1.14918538149552,3.20354957062887,-0.180952152656236,10.6256160004457,3.93922957627765,1.73972215058088,-0.373608079402979,0.187113200347606,0.415030913449042,10.0164585546657,0.529571008359756,-0.260568113982771,STAIR_UP
1.08,0.194615044056153,-0.424278842646537,0.113647027564177,9.29247753965499,0.672677446596784,-2.60792329720338,0.994796176568949,3.13153620741144,-0.0575463621683175,9.96326646611636,4.48725619616975,2.03680352665258,-0.480014965437616,0.206282239708958,0.398819928767516,9.78877187681404,0.640914238467503,-0.476375277107187,STAIR_UP
1.09,0.208281609848378,-0.42719468934814,0.126087736637379,9.45701730036837,0.407071167113732,-2.49154522273639,0.757616911502343,2.99661716608533,0.0834784956328228,9.27627098731169,4.65081985386562,2.29425990068358,-0.493609259350202,0.192050535144176,0.349606741314937,9.6675508527827,0.810588801397304,-0.912640799009504,STAIR_UP
1.1,0.244592518914768,-0.409762557604984,0.124917516812134,9.39916495512615,0.236616284903777,-2.11772664332869,0.499759439501665,2.91407905391312,0.213833520135418,8.31715831856329,4.53778760444122,2.78384915281004,-0.458409446249885,0.211041991166789,0.27728650279734,9.5630020998616,0.752596519443661,-0.838136778816741,STAIR_UP
1.11,0.295049689393214,-0.391263659311127,0.123556083186331,9.3104788374828,0.179309818053997,-1.87495747245596,0.123463580983551,2.79100846616113,0.285546435277804,8.05035208867446,4.25928909585221,2.97691053937972,-0.443006494758101,0.250951275341682,0.200175163871364,9.51101619237293,0.551456067612043,-0.36637389142623,STAIR_UP
1.12,0.367274087860028,-0.405517264213456,0.132641945941145,9.51575830710155,0.333030197111119,-1.83318433669131,-0.222404871178707,2.63002944676272,0.269707607598365,7.52228655658901,3.50284971846328,2.51859813719217,-0.449433300017361,0.264317303272403,0.138556618817401,9.50869439817138,0.334952189534202,-0.0272352647981015,STAIR_UP
1.13,0.437675561912685,-0.428990543453992,0.135346015027072,9.61499922730195,0.530334583178153,-1.95725766767301,-0.429803662931796,2.4592579866776,0.187103697355085,7.19671381038814,2.71141535988304,1.9018445953098,-0.471709234888513,0.246545191807219,0.0967134827483229,9.43598548614164,0.082548531386832,0.077130808135326,STAIR_UP
1.14,0.495121609132601,-0.44546951598711,0.128812693167516,9.63399911703341,0.668568332868066,-1.8598817282779,-0.538472653045254,2.33050528284866,0.121393540854671,6.84233762653964,2.13971384517849,1.70640356483893,-0.455349267142775,0.224787306818195,0.069717326783001,9.37861391559559,-0.152698058882087,-0.078119885316282,STAIR_UP
1.15,0.487663085632244,-0.446847789184265,0.118063483910345,9.61035613807917,0.43990671215926,-1.69990592459502,-0.574626879532808,2.22750871809602,0.0560861407198489,6.58817496360074,1.54512763582709,1.56330730830497,-0.4183112259009,0.238567416826286,0.05500389867091,9.33551364502323,-0.339628423927392,0.0060319788957054,STAIR_UP
1.16,0.515581621383144,-0.444786967169697,0.103578542915966,9.56054303198953,0.0130036086764276,-1.40642372624369,-0.46685101705083,2.14186128540124,0.0124156536500141,6.49521614247626,1.18017166949001,1.27815415052104,-0.393168132654876,0.261580208086555,0.0603800052349929,9.42275743332612,-0.408744115094449,0.219230911399038,STAIR_UP
1.17,0.59685323044012,-0.433099257487541,0.106192086030876,9.73645333425801,0.0475874811050899,-1.37240367207387,-0.26636738190388,2.0469647001673,-0.039476397799447,6.47874177827143,0.869081716476166,1.10689852901269,-0.360118758835978,0.255290772153803,0.0786144294083579,9.56362547051173,-0.417627156379174,0.008768820133345,STAIR_UP
1.18,0.685659257541611,-0.396319542250315,0.0966154671237019,9.81114835878829,0.472336522390949,-1.63552791658025,-0.0772256096234017,1.92898330250287,-0.0917750710485635,6.07470339244616,0.598188196433487,1.1752670661275,-0.312163807683915,0.219479312884807,0.109663697384033,9.53499945870268,-0.439261970717151,-0.204629458524229,STAIR_UP
1.19,0.738294662229735,-0.417784911966976,0.0782236009146424,9.598600122237,0.582480830124107,-2.02921819612083,0.0531920044648784,1.77879022595962,-0.138139553369221,5.54922907483809,0.661989391572588,1.45843560972044,-0.278993435372841,0.182927393605361,0.148184380736589,9.54068008891888,-0.405485354387811,-0.342071478077386,STAIR_UP
1.2,0.685217614747774,-0.433571359873555,0.0771209796613394,9.35276253443976,0.786035533257355,-2.28965611412404,0.166434430928302,1.63033452221382,-0.170179385910374,5.02544374400834,0.670386796928505,1.49006209901244,-0.246005131671467,0.165099546220183,0.181629240390881,9.52977891783314,-0.373105270865654,-0.520425697642648,STAIR_UP
1.21,0.62604086658738,-0.454022477249156,0.0902139237208036,9.10444248581849,0.766956930722227,-2.56832161384353,0.285160424494675,1.46382916139671,-0.195892787946174,4.30874312649624,0.696302602002108,1.66604587726332,-0.222294905777875,0.152725804456852,0.213801149563304,9.56569243853505,-0.33884379713473,-0.550685839507971,STAIR_UP
1.22,0.597287939099773,-0.494045700568125,0.145764224517693,9.34751540040403,0.398364537657071,-2.80693372536188,0.376844798955759,1.25436320656879,-0.222284109293188,3.93395468602005,0.705899809944619,1.71403295467714,-0.211787672477486,0.150700416354788,0.238445329434044,9.65358157596192,-0.343976640540787,-0.420719199485007,STAIR_UP
1.23,0.561335748547963,-0.497497921893315,0.21511446402689,9.58809267296059,0.192328308480223,-2.92337316539084,0.517959121079799,1.07678911533114,-0.244195471678091,3.7888247414615,0.537506281303656,1.66885180510581,-0.207176779186411,0.153055824887935,0.251702418837972,9.79325392948288,-0.389270300603125,-0.345487304729272,STAIR_UP
1.24,0.512075480785478,-0.485496140087841,0.26621003147998,9.67495287284719,0.0445884227124535,-2.92241390746752,0.713669259432701,0.931592867723751,-0.271489085455834,3.60930016593525,0.469732753110514,1.65192941185896,-0.203152257411901,0.165686906076574,0.253954627239234,9.89149182985437,-0.420074683383495,-0.18923733198117,STAIR_UP
1.25,0.462187769474772,-0.47607628368833,0.297007721231223,9.79633497790354,0.184494443970491,-3.06341630537899,0.9316326518695,0.771478324174989,-0.304781742808732,3.31099969476999,0.595486895436003,1.63261568239808,-0.219789282906561,0.175039312916805,0.249042678418489,10.0486294373699,-0.474473380499543,0.0184096576765638,STAIR_UP
1.26,0.393976722123288,-0.465156658195306,0.305917979718674,10.0891293843388,0.497996597403307,-3.43513661267993,1.04456644687255,0.569030012675007,-0.333213263580274,3.05593545169759,1.55181202430199,1.74934572599389,-0.241361866507437,0.210208489812609,0.222922123252948,10.2405132583096,-0.564268900921598,0.13472113355922,STAIR_UP
1.27,0.330428786278867,-0.455793748816883,0.308941421162444,10.3094916343494,0.642967648947298,-3.94771658788358,0.955678335588986,0.331269525015874,-0.343133579925641,2.80874004576875,2.45856216536284,2.18755689024277,-0.257411655800638,0.233393216843868,0.19082689683954,10.3761472237381,-0.632660560505551,0.0797183971035593,STAIR_UP
1.28,0.279571497436799,-0.454829208097258,0.302245665754135,10.3091014622599,0.420978038770274,-4.26967814835863,0.630546882876092,0.109464998286556,-0.329604274079775,2.94474181988662,2.5452991408163,2.91086709626986,-0.233210928732174,0.247079056935744,0.153171374830996,10.6322161747196,-0.644891418265459,-0.219707561954101,STAIR_UP
1.29,0.281368638597239,-0.495124641804233,0.306343153257005,10.3942360117452,-0.052422412864837,-4.28971202525,0.17807677043571,-0.0705861872984366,-0.269375305534858,3.2487341457071,2.56730468321937,4.06799820188811,-0.194977538933974,0.253808907628688,0.110336699189942,10.94606884044,-0.586184659251501,-0.290958578439264,STAIR_UP
1.3,0.313946169108027,-0.540753932240937,0.325780119514547,10.8423170899703,-0.523493646170461,-4.27546827755601,-0.178725050577511,-0.204854739554477,-0.160295482973034,3.56582044562395,2.65061932872968,4.73641255439671,-0.169165324807514,0.290899079488049,0.0637298244558741,11.1995641259892,-0.705513720206541,-0.466456170074984,STAIR_UP
1.31,0.377806335427142,-0.556842453865617,0.336666726711164,11.2647970485488,-0.633624602013993,-4.43509372941458,-0.385854464869601,-0.374109849399243,-0.0111904544023421,4.12867309864335,2.13816818041407,4.97379908336328,-0.150746560555509,0.315002664469528,0.0187926501075744,11.5469946693715,-0.740443548399292,-0.318838753896089,STAIR_UP
1.32,0.441956832214123,-0.555701003233279,0.344241543308837,11.5945834225738,-0.584483071467022,-4.36449012896286,-0.412864743278112,-0.601537813837941,0.150242971526133,4.55928333862804,1.1501996672877,4.63197399313873,-0.142924373927382,0.31552830649976,-0.0260332701923652,11.9246522659389,-0.883858175104558,-0.279439175981344,STAIR_UP
1.33,0.481560422259289,-0.551458008378887,0.353886315889317,11.8075547800279,-0.343319983240795,-4.07204611328067,-0.369523214177126,-0.809086250716886,0.281169270098385,4.75978370274065,0.677641791158157,4.01092361838221,-0.141592059048227,0.294483207665432,-0.0647324464535477,12.2274316090119,-1.08804678224516,-0.289608332353566,STAIR_UP
1.34,0.458384298615633,-0.531589076229545,0.362346021030065,12.2132118885274,0.0032467551179013,-3.6074135528793,-0.345117080045167,-0.971865228576186,0.373264778408329,4.94344489385521,0.587223861850238,3.4947524412633,-0.152398872355304,0.298489386158809,-0.0935943691242888,12.5195376802145,-1.35843921651327,-0.284808517466608,STAIR_UP
1.35,0.368870243526729,-0.487401803223384,0.377224216872804,12.7588185415758,0.589199819278775,-2.95960810757994,-0.334431196435166,-1.12208087158978,0.410018302449934,5.35463581705771,0.432377430548033,3.29538744121765,-0.139539199437868,0.345075233335777,-0.119787269508484,12.7437289150629,-1.47217837605345,-0.161472673313245,STAIR_UP
1.36,0.304350994944767,-0.384188539754734,0.379869693939025,13.2764391966777,1.3375582667634,-2.1921986878864,-0.390203306930594,-1.28267006187193,0.415900439422018,6.03303759415054,0.196968268947949,3.81987309988976,-0.0992421903775128,0.364577395091133,-0.124101124434608,13.1752345650499,-1.52930915647841,0.0264525452532133,STAIR_UP
1.37,0.261445903312721,-0.251999183453586,0.382336650631946,14.0268423487532,1.50436864148948,-1.55143513296794,-0.449542531673775,-1.43498244022503,0.429481541657243,6.62414111016493,0.195729241725135,4.29011917956524,-0.0556556167671159,0.36056812758654,-0.103366087409669,13.5316905909484,-1.5930985837917,0.171542855969143,STAIR_UP
1.38,0.201168311728533,-0.0845747926251155,0.38004416239347,14.7615816578342,1.58776430795201,-1.08560120711108,-0.502381328569983,-1.78656306221605,0.429734110981212,6.76737776097993,0.633364911539627,3.31028531857902,-0.030549446959605,0.361052951299745,-0.074484712324669,13.8133176731608,-1.66593131328474,0.271702859972257,STAIR_UP
1.39,0.139623798860383,0.0958298935836536,0.352408533753511,15.1916064365002,1.55134340615093,-0.488219774560454,-0.555065253460295,-2.04332299027065,0.423746142075568,7.75238907690834,2.13873914605921,3.3763591683855,-0.0132895801596816,0.394328165409999,-0.05221125348082,14.0945645578833,-1.79544860124869,0.569089665452654,STAIR_UP
1.4,0.116486547389403,0.217160871299338,0.324945171825235,15.2356236795721,1.45091108914533,-0.347687205813828,-0.590753820106887,-1.85925169098945,0.568993901928852,9.41793631231218,3.3151513646699,5.81917892741634,-0.0354373923381832,0.385839300377169,-0.0336378970480773,14.2558175626972,-1.73454785459827,1.10974316431349,STAIR_UP
1.41,0.16596016647594,0.316166060564904,0.311374390910156,15.3048969564133,1.0110481809773,-0.453041575184798,-0.641423651883362,-1.86393018596781,0.777864106320541,10.9616575764968,3.66401319100571,8.6809226474448,-0.154681862674002,0.327649728878622,-0.0267220569112542,14.4378873607474,-1.74617848024879,1.36003174565379,STAIR_UP
1.42,0.287706198485419,0.433772611731732,0.276622534437548,15.1145137796171,0.578947565501766,-0.348241878084469,-0.697937592687257,-2.62453331831492,0.856862982132163,13.1225109345277,3.06717443812082,5.0761752086639,-0.378480798532043,0.29915047727892,-0.0413510958220015,15.0268161138527,-1.33262206130716,1.8903999411424,STAIR_UP
1.43,0.387077168254463,0.562452412227198,0.237379378098491,15.04641796077,0.619000322265973,0.0033180709075001,-1.05385931935748,-2.53141432752008,1.06846884523596,17.4135070566,3.04630860292815,3.25356510067438,-0.550577845716111,0.260901151091837,-0.0070600377517963,15.3581160515555,-0.780858571499412,2.840977495521,STAIR_UP
1.44,0.442487410182491,0.723008734890877,0.16129304133386,15.0540625619974,0.961032295370435,0.824225018240655,-1.56589337914751,-2.71305654310614,1.09276388340649,15.826002219662,2.3014634305956,3.333395814418,-0.465782290863847,0.108961126847601,0.0453178574770503,14.8728436973977,-0.490851164953069,2.07308939977834,STAIR_UP
1.45,0.39528821441155,0.944831792310882,0.0547983429450923,14.9331609293492,1.34200198433946,1.99843145674691,-1.81069084759208,-2.74929490178993,1.08432322214068,14.566220057634,-0.0934274879045014,3.04178798937871,-0.134430512425429,0.01318225536079,0.0702007132272629,13.5838954255517,-0.844296861878604,1.28543455495921,STAIR_UP
1.46,0.278003274846751,1.2116888971494,-0.0934484069612474,14.4131927754444,1.78790430220401,3.19835576657092,-1.76936468497905,-2.8079954253776,1.14412796269027,11.5257839227888,-1.4445842070883,2.88576518378536,0.347644340595215,-0.127200474719225,0.0464156700646895,11.9443280405277,-0.914407874791551,2.17226819578458,STAIR_UP
1.47,0.170162564515677,1.52187426403231,-0.267462006406966,13.7845161281017,2.10954693462475,4.2649217740006,-1.13137750378404,-3.17084149937642,1.01422592530815,9.38210055895883,-5.93043552004693,2.73021650935356,0.444692017143898,-0.297591178831564,-0.0021582179763894,10.4717149015413,-0.867737260178133,1.58150377275589,STAIR_UP
1.48,0.152043972098812,1.84380717815068,-0.428906773357454,13.0227068223293,2.21998107704239,5.03564633873912,-0.948307508114166,-2.92520912898236,0.776221617629561,10.0701098380779,-8.42470657194119,3.42399275295576,0.39062462686359,-0.159512965860817,-0.049558100926335,8.32885271238791,-0.691318691650346,1.53886485252306,STAIR_UP
1.49,0.155666931119552,2.05037703545366,-0.522540917997552,12.6419487146121,2.07866374606757,5.17440509682204,-0.669415011155561,-2.379767360782,0.620384353904238,10.8191098156855,-7.34320349365335,5.22231106457081,0.473851801549722,0.009420839458223,-0.0837317147281204,6.97066819464911,-0.214513322374554,3.67088957870283,STAIR_UP
1.5,0.144550782344823,2.20285655688566,-0.541975863774046,13.071577802263,1.93983225986214,5.07831928396759,-0.0049048839307235,-2.0868068745909,0.471106487715185,11.7504058395389,-3.55381715925035,4.26416324564853,0.369554737316784,0.0084729035987632,-0.119191079951305,6.77804003413672,0.393520966225256,3.5887558270439,STAIR_UP
1.51,0.010212859710292,2.43046245236922,-0.490020487805602,14.5270062920034,3.47500277180119,5.48287607880177,0.475191750979255,-1.94984027402003,0.312621944722103,11.3417577527726,0.475871576668669,2.92297510189618,0.315096376807277,-0.0397355794851287,-0.160986929617178,6.34973519249119,0.472200755080441,3.32700952662364,STAIR_UP
1.52,-0.230979301806868,2.65580288824997,-0.550867245404128,15.8083230461369,6.38325665680311,4.52328864758356,0.461935791640397,-1.87609401145219,0.0805327812530794,9.78959388756429,1.66752756885019,2.3965472413696,0.254206804252623,-0.0758018890543534,-0.227226126684807,5.94637091314087,0.174740748693936,3.30147606517503,STAIR_UP
1.53,-0.498959091535176,2.49880206351062,-0.655497073343086,16.2751269683951,8.39533182864927,2.15468277301179,0.125140936112442,-1.74818327611809,-0.0705360441636498,7.7946331388299,2.0063265460966,2.91413007639216,0.163867110722437,-0.0697695977435655,-0.318270007549867,5.936907390779,0.317246115322335,2.97669338735393,STAIR_UP
1.54,-0.762213760922397,2.09589921452598,-0.803036637481169,16.5517757099176,8.44109230190122,-0.916054637881678,-0.172242603804087,-1.64740303179254,-0.112326695525961,6.70482561441499,2.81150648946292,3.73015560218474,0.171402081762448,-0.0083467986374998,-0.430829450870474,6.31684508269768,0.724937222356037,2.34147263594738,STAIR_UP
1.55,-1.38069017532366,2.14209132116785,-0.96023788148608,15.2739322197957,7.41910576008492,-2.49975134845623,-0.580796274585394,-1.6219058372707,-0.05877967056581,7.03935659597992,3.23364599499085,3.49703817125468,0.230224171290932,0.0388019729114985,-0.537874492688586,6.72147319809053,1.07741041486983,1.78360823822929,STAIR_UP
1.56,-2.55577700874658,2.42608679409325,-0.912945591603825,14.540760841566,4.68479578972141,-3.54391277376988,-1.08928745742858,-1.63409373309746,0.0655431232349477,8.37243036164857,3.1019983885221,2.7177598249204,0.313506361141249,0.0681792292416551,-0.607685562849992,7.06070735743153,1.13786709629938,1.77647833088458,STAIR_UP
1.57,-3.56488808458617,2.63607648237824,-0.798797753008301,13.7951447883363,2.06178368736412,-3.40298444778107,-1.59537318042988,-1.72095702319238,0.20750696706321,9.35854907659546,1.62933777158258,1.54660300713427,0.407196817507627,0.0939036307725018,-0.632010341998247,7.45741593316737,1.05202821197164,1.71200900002631,STAIR_UP
1.58,-3.64924999263049,2.97885017682598,-0.853461612087614,13.1768544942207,0.0355894668326283,-2.32712458776075,-1.9985661462792,-1.82303233339912,0.267477744317709,9.72747621771755,-0.358822247422269,0.837102900230716,0.483781191986159,0.11699053735967,-0.590872422587448,7.80034347443329,1.02224335280284,1.80757607305015,STAIR_UP
1.59,-3.05518769738934,3.06044958556251,-0.805204164965685,12.2277617311168,-1.7649116138594,-0.888010613019498,-2.18236678962899,-1.95137556965607,0.258844270275506,10.3629140352286,-2.64513345386483,0.185150645543935,0.523922866051223,0.119132891073232,-0.505684719817721,8.20216723366825,1.17604566150949,1.88847348098695,STAIR_UP
1.6,-2.32898052878469,3.2114903871603,-0.616148103993864,12.040095746137,-2.52558286426307,-0.204886562862495,-2.1085334755626,-2.04935914380173,0.192322747741513,11.195693546238,-4.34737523286514,-0.606684043847807,0.535449629763502,0.0889308684106824,-0.393367476981006,8.67058370116627,1.67535466936379,1.7999899522393,STAIR_UP
1.61,-1.63597021174836,3.40300240194481,-0.464138899032633,11.8005527330744,-2.73033947197536,-1.6423888125233,-1.78735462576021,-2.00378204778381,0.13598146327267,11.6698270540032,-4.79339749015074,-0.679486080449457,0.552468167066629,0.0497950860896107,-0.268722775990002,9.10670393717829,2.21361863833902,1.77624013026327,STAIR_UP
1.62,-1.07377528508324,3.34341792103598,-0.364014768527927,13.379050419793,-2.07528311074536,-4.68561218928466,-1.36684998961663,-1.93747315118305,0.0568582548473871,11.0784227292172,-4.04217370024953,-0.93460509938813,0.531070289009571,0.0034210085543177,-0.181069820817371,9.30866298843533,2.69189694892205,1.79907585404158,STAIR_UP
1.63,-0.975534845159711,3.41131901502858,-0.441272593817132,14.5494221024766,-1.48918464421602,-5.97723197605077,-1.0609252344517,-1.80736730782533,0.0101706299576632,10.3539540111156,-3.11134007685254,-0.671563115162568,0.47729409218878,-0.019351220482182,-0.14902952396699,9.44279717734237,2.90468862679973,1.68923070944738,STAIR_UP
1.64,-1.33362810858031,3.67435460268797,-0.661841284998268,14.357706558836,-2.25559787982664,-5.30206927173168,-0.874010788103311,-1.70284477136254,-0.0345574272033991,9.83995069024612,-2.34138050282667,-0.500822809611476,0.415967371567044,0.0075523226937628,-0.161011985450743,9.47981346075402,2.74950901722057,1.66092271504715,STAIR_UP
1.65,-1.57215498305127,3.9939901165254,-0.880662094466961,13.4106859675981,-2.80277698951612,-3.66067523932213,-0.8133055797998,-1.64022418386085,-0.0908576019073758,9.33121338986517,-1.69934524621473,-0.233175070843643,0.340441679349437,0.039235675155442,-0.190908229525018,9.34547132596442,2.3560182477471,1.68806587801002,STAIR_UP
1.66,-1.45747816945448,4.27166995122617,-1.05170702764725,13.1931952329268,-2.6625879310244,-2.29933078626309,-0.760274726464405,-1.6617660669163,-0.162404890255704,8.89154134598751,-1.40717447362465,-0.0461557738028658,0.277887929879404,0.0659423542769076,-0.22301493299388,9.1662644376141,1.7840871107937,1.47055148696767,STAIR_UP
1.67,-1.06824674260465,4.30530067262433,-1.15093435134315,13.0834451592135,-1.73612340476435,-0.95657837739177,-0.810285318068217,-1.72815148866648,-0.222797545178815,8.8832170917875,-1.43079432909228,-0.173809834989259,0.25504836218649,0.0778990227741522,-0.23245257377904,8.92073348358967,1.21774474556724,1.22362056031814,STAIR_UP
1.68,-0.594874793380254,4.12107970907229,-1.14129793047951,11.7286413826896,-1.66772042249227,-0.948757385382034,-0.847603005619683,-1.77340920581641,-0.236997056165534,8.83210287028051,-1.33488179485999,-0.438137675819553,0.251425845057247,0.0945442296445818,-0.239980558444444,8.62827820770381,0.795541055990843,1.22134500020086,STAIR_UP
1.69,-0.197504565966365,3.88466262142449,-1.00581248711532,10.4340699082023,-3.00131976749667,-1.75463483930641,-0.859591022641716,-1.7924713512119,-0.209436034146676,8.70368275047214,-1.51410596688137,-0.748365724385617,0.274370061780959,0.112315376395376,-0.232337754211139,8.31948080937885,0.610515736907287,1.31367733017384,STAIR_UP
1.7,0.158055830093188,3.56842964025857,-0.867001639299029,11.0206198179499,-3.3716488246034,-2.2572925450019,-0.968743702396623,-1.84512048487195,-0.221340442973059,8.62775384146912,-1.56110631498993,-1.06285042377251,0.328959285693145,0.138336893901031,-0.232974566066952,7.98159195021477,0.642297151181546,1.26325604202111,STAIR_UP
1.71,0.370337408611643,3.3349078713425,-0.797386447796787,9.43107034510152,-2.31413115372715,-1.70818500595784,-1.04849668574427,-1.86566087085582,-0.21848529976536,9.05152544117949,-1.18069610832443,-1.15265623297527,0.403020266537735,0.159205251120565,-0.249321685450715,7.86687230601048,0.706680295455973,0.921915904866525,STAIR_UP
1.72,0.32045605340428,3.10533582560409,-0.749686883589485,7.81058005527497,-0.514962459779795,-0.520918786651159,-1.11782616838347,-1.88863967198606,-0.183572951966034,9.20058369190088,-1.16803180645115,-0.785323450287352,0.48302839634627,0.188472272423633,-0.26084379028609,7.83114719881397,0.825649661380847,0.656002168026321,STAIR_UP
1.73,0.128663908691261,2.88545905000689,-0.683356450948117,7.57086067452612,0.618778273416275,-0.916467978509123,-1.2734790644885,-1.9427869381456,-0.181017682295042,9.54571781386842,-1.28946007208275,-0.781067400672268,0.537421075206099,0.211440946545447,-0.261075967956165,7.72101304289338,0.983905919834475,0.804621490656383,STAIR_UP
1.74,-0.016474278728327,2.75176307289734,-0.680301275835663,6.91053349347836,0.863091625863281,-1.48693022662881,-1.2734790644885,-1.9427869381456,-0.181017682295042,9.54571781386842,-1.28946007208275,-0.781067400672268,0.578647312639815,0.215299356993196,-0.247426216504956,7.63611049785489,1.31393304299902,0.440381947403469,STAIR_UP
1.75,-0.22171501312874,2.62713376391618,-0.733347596609873,6.1747190628382,0.970382704575246,-1.48498580014717,-1.36158973011615,-1.95914475370655,-0.177244174105943,9.95519219554698,-0.898984527379397,-0.0496515057136564,0.598458881871749,0.254698014240738,-0.226484735468169,7.71110270776627,1.69443311040686,0.223721454578699,STAIR_UP
1.76,-0.549895349920328,2.4698211881147,-0.778312893075687,5.70257345466845,0.80624971470403,-1.17400790186596,-1.40771874352383,-1.94695471314365,-0.20331478354148,10.3648191238171,-0.68096578013913,0.629844397861916,0.542478321003147,0.306125675503995,-0.217744524266526,7.82668402490671,2.00387361073465,0.579810096357287,STAIR_UP
1.77,-0.841148510982523,2.3112982199121,-0.834248066214918,5.67626919441264,0.0657347916111346,-0.933314024702769,-1.52906087320636,-1.84471165822721,-0.223264185335573,10.3016163445594,0.184879859982151,0.0819568102228359,0.466747094817688,0.292677588556954,-0.211178948364832,8.09749081970691,2.20573135222675,0.844116082567836,STAIR_UP
1.78,-1.00255880322243,2.12174711888652,-0.873421446956698,5.47260216955,-0.497784968225233,-1.16291524353707,-1.67696278818755,-1.75779910560446,-0.190711865077703,9.92868547681312,1.07960300335564,-0.0888708544843456,0.388713056585295,0.236693229783377,-0.212971870262169,8.46373672354014,2.3998363564643,0.910357321708573,STAIR_UP
1.79,-1.02667680077001,1.90877837613118,-0.851325252087118,4.56687718317396,-1.16618597483815,-1.57892698083267,-1.84782827140274,-1.67989574386783,-0.162094199564566,9.89454209516062,1.04598783400676,0.129704657031504,0.289311721683998,0.185362979322698,-0.232112493071962,8.76349190639904,2.45512917432413,0.649323986174211,STAIR_UP
1.8,-0.985068650892685,1.70508545128345,-0.714822134510901,3.75798527775202,-1.88180799286973,-1.84324715826429,-1.93113926449558,-1.56658005914902,-0.136627728246697,9.88493285615781,0.244332177689465,0.153729948904719,0.252277544568376,0.191197353033627,-0.267402019832597,9.10293465321138,2.60360911195068,0.95010310438918,STAIR_UP
1.81,-1.00316745796083,1.53448254206653,-0.516430766078602,3.32958824907446,-2.13560255896982,-1.77304969574346,-1.92400656704081,-1.4704217984174,-0.124644801482916,10.1233470054673,-1.07350344978437,-0.106699048276096,0.207225808964131,0.214695891420236,-0.301083083812931,9.24431244606337,2.69795720494975,1.20485401346068,STAIR_UP
1.82,-0.985392783662378,1.34753565015598,-0.319248302094073,2.82596164189118,-1.68150279511643,-1.5731802668552,-1.95048059417691,-1.37932062082263,-0.103257193886037,10.3356660694425,-2.50347352699476,-0.866284911475804,0.137555766819904,0.221381689627774,-0.334312477216369,9.45168635670082,2.71774485606978,0.999820352895469,STAIR_UP
1.83,-0.928624825391809,1.07940187824265,-0.153135935923247,2.04836673921611,-1.51917726238538,-1.35683248538613,-1.95261150006294,-1.30608008655894,-0.101629355795457,10.5026856420448,-3.57961737806601,-1.58955690049371,0.0758342427734262,0.230948085874226,-0.365067466892617,9.5999549314622,2.64595317598155,1.36195626218802,STAIR_UP
1.84,-0.92820321089236,0.770880169695324,-0.0451294655500878,1.14174780386852,-1.61845737360182,-1.20283542583698,-1.83101247070798,-1.23642369508101,-0.129448387873086,11.0956917516734,-3.97069433903497,-2.29549059163789,0.0481957330557308,0.180204060784496,-0.386538378169249,9.91311617580282,2.65447810717102,1.36547165955466,STAIR_UP
1.85,-0.81909934363033,0.481849141212755,-0.0062736482681647,0.982000628635853,-1.51470452251717,-1.22360776215781,-1.50745670207649,-1.13365468103067,-0.154504460107554,11.3324093881513,-4.09436022827081,-2.58728345243335,0.0061211306504764,0.156483678354255,-0.408905348688866,10.2236500678297,2.55122120347878,1.27467036186267,STAIR_UP
1.86,-0.577285946144677,0.174598955118338,-0.0334505000380135,1.12275117075104,-0.872973949373002,-1.12848939792962,-1.09052679675888,-1.05562765147641,-0.206285544192022,11.6642048629952,-4.02745656917377,-2.32136057308512,-0.0412585006637523,0.121358367718405,-0.42511488196538,10.4025332971516,2.41924521476158,1.2139091411,STAIR_UP
1.87,-0.34090817203027,-0.159658325512477,-0.086317586673058,1.34655458809907,0.0276473651552676,-0.609207642078029,-0.789552293957233,-0.956004686677725,-0.262385397733589,11.9495691638112,-3.62990743205216,-2.0735549435729,-0.0520786784592608,0.0774526391312641,-0.427360598748928,10.5124188396053,2.38525161740401,0.851846533440469,STAIR_UP
1.88,-0.205160477051714,-0.48951654997129,-0.141031211603438,1.68554361706047,0.414959110876402,0.039491760032965,-0.564223934293744,-0.845498233835003,-0.31784978383956,12.8814783953895,-2.97538505817999,-1.97608449022334,-0.0207364288459411,0.0518121080150368,-0.419988313824492,10.6324758529737,2.23155765731038,0.643084349746633,STAIR_UP
1.89,-0.0488740412369163,-0.797556346990721,-0.224598763990268,2.06969844864994,0.643353125068804,0.630928412633166,-0.36771866742664,-0.704477939935176,-0.365015502950737,13.4499594999641,-2.25929936779793,-1.56875965788215,0.0193562201549216,0.0395160343191587,-0.392305244885312,10.8387938581675,2.2942999510254,0.532787185052695,STAIR_UP
1.9,0.0935356531548092,-1.080096495979,-0.309487928604462,2.27949965551908,1.19333716372034,0.97176002346965,-0.181382275032191,-0.666636778845285,-0.409745668695271,14.0748555411053,-1.74245819828705,-1.58178508124433,0.0604410348284192,0.0300117980346675,-0.331616128944664,11.0203237068044,2.37380928936404,0.293105053252394,STAIR_UP
1.91,0.180734633585697,-1.42829140649649,-0.376838338225304,2.46469307408151,1.97136399674692,1.15069639721092,-0.0420400455587995,-0.50598765513605,-0.397125288513791,15.0245788291955,-0.950053839858689,-1.05590189517467,0.0750572480592248,0.0193128420506588,-0.247425356112008,11.5120690605961,2.4819159463709,0.33640965487611,STAIR_UP
1.92,0.222557419344872,-1.81373673215018,-0.417373864940469,2.90015917790279,2.61865634764695,1.10312343317798,0.0630577497985919,-0.343092755495424,-0.370036750741789,14.9147126967271,0.108895444803726,-0.185905336211103,0.0836415544046397,0.0019815753023585,-0.140002476205443,12.0073051902887,2.87676049387696,0.258940583746309,STAIR_UP
1.93,0.177436814360216,-2.26672610249243,-0.386054443977425,3.54183504286317,2.71228282108127,-0.0308311756593794,0.158605964150535,-0.275606423763659,-0.371000528591217,14.6804407633567,0.975574100318452,0.472251587442153,0.0945173481087184,-0.006941902499164,-0.0173058321275047,12.4280633485819,3.35761558507944,0.312299916240238,STAIR_UP
1.94,0.0763149448405252,-2.64561688380645,-0.286500135091491,4.74933012734949,2.02850114744399,-0.6300161291815,0.185948976366497,-0.229741667162135,-0.372900148857638,14.3777477111154,1.54215855717244,0.97521203509288,0.0699939348257059,-0.0219628833166437,0.0981584485377603,12.7714198536564,3.80468647148527,0.554669561119531,STAIR_UP
1.95,-0.0218152385494677,-2.93525132602637,-0.17821890867219,5.74674892622744,1.24517415067293,-1.68671922613521,0.155553198417861,-0.163685247627645,-0.361919827651371,14.3618006157982,1.82988986847771,1.4669985250206,-0.001667711562575,-0.0695565316682995,0.202646381055024,12.7858002793121,4.25395422099263,0.616416192061542,STAIR_UP
1.96,-0.0160476907359597,-2.91962309839724,-0.126035675232127,7.42524993473995,0.109992668821845,-0.503455376069192,0.0327076193152795,-0.0679737137473049,-0.35369383009245,14.32432179531,2.04557861358356,1.78219839899761,-0.0953716522042042,-0.122457495968503,0.279106913696315,12.5568971042127,4.564257007425,0.931042914647536,STAIR_UP
1.97,0.024753029246038,-2.23526073099155,-0.259285406746442,9.45872805713239,-1.76454342448057,7.89969479583028,-0.160231968038465,0.0883480724928049,-0.352205968731898,14.3380079875024,1.94404206001142,2.04106526362323,-0.236363482538182,-0.15354945868552,0.303751597182246,12.4131387992107,4.84889949156444,2.1449077559798,STAIR_UP
1.98,0.346903541680717,-2.11413266181247,-0.740412838525946,11.8005864320064,0.194059836920804,11.0398037167327,-0.364803372473058,0.265929012877662,-0.364934882876588,14.207139397385,1.61146730739535,2.58682474001976,-0.411715598706969,-0.14879174583605,0.293488938319501,12.1996190441047,5.23494410770768,3.72285105993073,STAIR_UP
1.99,0.859126658673917,-2.5320900629417,-1.05399866460304,20.3331070176327,0.902376001671598,2.06347114349485,-0.514089428264992,0.429841737328257,-0.380280367267168,13.8425440759305,0.708306279063081,3.0930532291726,-0.585236037446155,-0.142816691037426,0.214187088092547,12.6584489420472,5.00118774422439,5.26968435902855,STAIR_UP
2,1.23688143501274,-2.62605725504092,-1.25974286874143,26.7737161038335,-0.0914278070255827,2.80354563648448,-0.572062838389712,0.567378307290836,-0.397442118657514,13.8369579801207,-0.521912940762136,3.28648852846986,-0.818483391220122,-0.292014742204163,0.0589669540621018,13.3552370635341,3.94677794309551,4.21296072081316,STAIR_UP
2.01,1.25861256093722,-2.94496622586402,-1.21661935632682,23.6789321410401,3.7576166549397,4.75410177176161,-0.534414258075018,0.673290803847816,-0.372800730534667,14.4544170417275,-1.10980614659376,3.06222240777663,-0.817668500448655,-0.439856939293636,-0.109898910545419,13.179081416667,2.73050395005239,2.12700342192854,STAIR_UP
2.02,1.08187193451754,-3.24736606921881,-0.691113934445023,14.6276474820844,7.91686966442245,5.01302422918943,-0.381218309110708,0.809753779102253,-0.259357812270192,15.0493742497569,-1.42053214084143,2.32075203039724,-0.713282561421848,-0.426119140936637,-0.207060361919963,11.3721272374026,1.47929377141777,2.18366395688877,STAIR_UP
2.03,0.911862064263208,-2.82808149902112,-0.189504776552592,12.0549617130721,7.26501687371266,3.02422042335988,-0.141647445728873,1.04872464379384,-0.0607994350341974,15.1485350773024,-1.47299218754474,1.86586993511477,-0.60580439423485,-0.387518755258764,-0.211998322710977,9.21958287972284,0.351070838674121,3.02141850862268,STAIR_UP
2.04,0.120608694770513,-2.38375510360024,-0.0763078260037037,10.8830255967992,3.39361897315007,5.86374153028772,0.134310292558884,1.41633523467939,0.121188955836179,15.7022680514056,-1.73449446965043,1.8217117180436,-0.56339729649583,-0.327014821097113,-0.130603733508706,7.64074256354141,-0.321107528642575,3.48242167300828,STAIR_UP
2.05,-0.164011342846894,-2.19057555050488,0.0299403625008943,8.84777229036231,1.02083895842029,2.91348517425577,0.528881697105667,2.058750257467,0.249518462522936,17.5857897396204,-3.3572955890091,2.54214774033126,-0.545983281603883,-0.300457603535647,-0.0018958481285139,6.46601578365918,0.0009729448784893,3.44823448893204,STAIR_UP
2.06,-0.209353283001576,-1.93451836922549,0.123210016841645,5.93678560017203,-2.59114772534928,2.50134208138623,1.09133172723394,2.90316798847936,0.371657033453738,20.1884944029139,-6.4327883705208,3.31565526761245,-0.510628900235137,-0.208101815471372,0.153998367841655,6.09791035563126,0.835552025831742,3.39219899765727,STAIR_UP
2.07,0.0387685773161675,-1.80070604737265,0.173616171709771,5.63352374350166,-3.8871990205442,1.81707489554989,1.84413126209218,3.60805269311511,0.530400324110022,22.2233703639297,-8.84925356062405,3.30206046402708,-0.544821923962752,-0.0870953857867583,0.360382329131813,6.97987717843381,1.20818558559333,3.28964294012637,STAIR_UP
2.08,0.552815297692978,-1.7137253246429,0.220137613550374,6.94594925289448,-4.60892195551606,1.59368430308544,2.56013455009261,3.72291420529892,0.608224069868803,21.6869048842222,-8.91995821686906,3.89245703918369,-0.663339065134403,0.0197737576394532,0.565337360935462,8.30625386892057,1.4776850275359,3.32926013023695,STAIR_UP
2.09,1.00479607884199,-1.69963148352906,0.273039190180784,9.45696224754536,-3.60202682616654,0.864847534361843,2.68733846326963,3.69718867561815,0.679355731047214,17.5901663128077,-7.73947369152877,5.2348356253192,-0.749285022259944,0.026151171888507,0.758701929606356,9.2019932409617,1.80665803603822,2.75264659886813,STAIR_UP
2.1,1.29778914312461,-1.77235651183779,0.3723044403273,12.8195583692397,-2.20231900136229,-0.506904801404988,2.34412440271275,3.25441335069246,0.674368012486074,10.4469805758004,-5.07314609822352,2.91561911979086,-0.767922959582999,-0.112478031200571,0.848462081687274,9.37934387370289,2.02335666067336,1.80549414659785,STAIR_UP
2.11,1.40259336449526,-1.82841437085632,0.514799876565614,14.5933993999341,-0.673453981239434,-1.1306470265535,2.13795186654266,2.28467595417166,0.329380338321593,5.56344584113692,-0.485230250992638,0.172528046749544,-0.733641395202453,-0.170273198591333,0.826413228271828,8.85878804995586,1.89495829015209,1.4147735593029,STAIR_UP
2.12,1.40154705696429,-1.83539037989267,0.55657695201645,13.0630671625044,0.496781366221077,-0.82025933096154,1.97947903029263,1.67688085361288,-0.212748069521935,8.17968088968237,5.19223153682713,-1.13713222578839,-0.665526781259427,-0.141485559341805,0.693719067774109,8.21540338253131,1.26777744275309,1.26832513423617,STAIR_UP
2.13,1.3300802236012,-1.79265454520129,0.475083958771005,11.0039868791133,1.20353969644073,-0.263067509323557,1.74331943924208,2.34726067050886,-0.357797685643132,13.3570445943438,7.60366994665839,-3.80209098432399,-0.578168780151482,-0.0618508466924893,0.499077010594487,7.66817592325629,0.410517964251252,1.40545037630637,STAIR_UP
2.14,1.29306722315127,-1.74197953517715,0.383054184129487,9.8557215456188,1.85569209507681,-0.282930250389614,1.686932238423,3.56516720624193,-0.390387220735651,13.0528910767654,5.1799261635704,-5.83916912515854,-0.492248275072677,-0.0281376017008354,0.310622394602484,7.36144211348226,-0.558391226852129,1.53496164152475,STAIR_UP
2.15,1.28360903875116,-1.71919117742836,0.347959875586068,9.02412013432255,2.2481018153973,-0.538754056806978,1.42619460066413,4.00069308810802,-0.403503483782271,11.4737572954003,1.37518140914434,-4.31383105014598,-0.396379377014599,-0.061092642388124,0.182365763614614,7.192635451246,-1.30781945516635,1.38671944913947,STAIR_UP
2.16,1.34001034697968,-1.69259122365273,0.360299237612416,8.67029809294608,2.62868302885482,-0.92507347978443,1.16461212226174,3.9069158588471,-0.398439393482517,11.5335820714906,-0.98291138984728,-3.42260460442757,-0.291820768113415,-0.0954144610810565,0.109966439572645,7.16746817680525,-1.7802373843414,1.29417734270254,STAIR_UP
2.17,1.42576177135228,-1.69568592848987,0.41274552862012,8.67785072469344,2.7206975525862,-1.05360101909582,0.891511907582858,3.71322100108514,-0.330436477673931,11.8759142713689,-2.80821953770692,-3.81254173544074,-0.172925992310847,-0.117564031110528,0.0954763230417033,7.34756561032723,-1.86966788106365,1.30440657436053,STAIR_UP
2.18,1.44194133619494,-1.72229493139745,0.461132060117657,8.89175873250867,3.31460760782068,-0.915195445121018,0.601450981190248,3.50765950520779,-0.110364213962333,12.7881304241682,-2.34222945363718,-5.36841143917482,-0.0592019157003334,-0.13967816454142,0.112415392842169,7.83571505037167,-1.74301439901358,1.40682539353783,STAIR_UP
2.19,1.38311391829978,-1.76412835769773,0.502203916496891,9.23134305534162,3.78926351446896,-0.672498207074925,0.547878030685928,3.69167179749472,0.289905070303809,13.2049114964711,-0.109046434644089,-6.78223801416418,0.0372254593404663,-0.156696065926416,0.150570242639146,8.40538999459579,-1.32541961971167,1.55076796485328,STAIR_UP
2.2,1.30465156118392,-1.75920427634942,0.516756470549734,9.56880672481494,3.85743889449385,-0.780607883927658,0.692358061659499,4.00179301134985,0.578807822586371,12.8145765863698,0.820362253554762,-5.20881836431993,0.0937711052995971,-0.149476862512485,0.200808951124183,8.79653854958461,-0.93056903070967,1.80311491909434,STAIR_UP
2.21,1.13019274911084,-1.74688591281699,0.496617331264094,9.62233366929149,4.03740626392455,-0.532527768865031,0.677743136333595,4.40234557609099,0.657482486275645,11.4475394846312,0.294479752777043,-2.18846540341369,0.109824042619341,-0.134827653735509,0.254239473513432,9.00938594560784,-0.493299956131966,2.0776023292018,STAIR_UP
2.22,0.998109386653556,-1.76630808599362,0.458168628069203,9.56679475148557,3.25081828621595,-0.544876787456993,0.561151164699083,4.23687237975975,0.549518889219302,8.76627400995056,0.597341319626319,0.800053891092789,0.0682053591658163,-0.131124888910009,0.303866110548644,8.8209895337889,-0.0858219529946933,2.19814370441887,STAIR_UP
2.23,0.93322368948141,-1.76995723249395,0.407989976035293,9.11854394372784,2.7915786091671,-0.767751257585426,0.566937454133631,3.62642642523684,0.384816286767366,6.72688518573597,0.997835395799606,1.00487634303053,0.0467874839126179,-0.152684570552653,0.342838225910595,8.46330554110742,0.376298391391576,1.70715217833041,STAIR_UP
2.24,1.0042692677672,-1.76549060508023,0.362878688473597,8.70362664328546,2.1164807630461,-0.498839826766329,0.326320212983841,3.19599939128977,0.266288474829317,5.79569981901149,0.812573862785,-0.740571966148212,0.0238293361812524,-0.136800024829658,0.371079593155723,7.98915383748794,0.773910653655059,1.33298536242838,STAIR_UP
2.25,1.04266435493678,-1.74740692859554,0.34282992333399,8.65189542716627,1.59495641997491,-0.083839889398178,0.0755776269404101,2.90766492134752,0.233617940013412,7.04807951507182,0.144708988231768,-2.32330179211598,-0.0330830893127962,-0.104215296297823,0.389311960825387,7.67455105931969,1.06663475189594,1.01947386889931,STAIR_UP
2.26,1.12515106747115,-1.72214569218942,0.339541580964021,8.86396957975509,1.56938209935539,0.0961327711946721,0.0919404759119538,2.783681550053,0.261229723563833,8.20706737567203,-0.644387840445071,-2.48566576055256,-0.123500660446465,-0.0290234724283695,0.38935923766374,7.43500234453456,1.19953752152271,0.782341367214796,STAIR_UP
2.27,1.2495458055877,-1.72550542357522,0.351760057329251,9.10484611658392,1.7625840085747,0.132161939161046,0.238590830538461,2.76725366454151,0.32010246123096,8.70852951117229,-0.781214398575114,-2.04044157669563,-0.222433710195839,0.0704463848255869,0.376539387636757,7.37853624055446,1.15202613802336,0.867872752751283,STAIR_UP
2.28,1.35580025921646,-1.70898708843836,0.376481651868794,9.53984922557679,1.60110185293141,0.0473812815585369,0.409279731144665,2.69675866631047,0.362178359529769,8.58751130184027,-0.483628045046787,-1.65809157974234,-0.315943438175536,0.142766539593708,0.351736646256416,7.46358358836576,1.01226394930504,1.08344803588526,STAIR_UP
2.29,1.39035683392123,-1.63384110809683,0.409756569060196,10.2216391719625,0.862760500868194,0.277630373125223,0.55335518090268,2.60234256598162,0.36914631994576,7.99876615980069,-0.301448422403119,-1.25345681296053,-0.374125043407713,0.194358805189774,0.323213828777138,7.66421576852116,0.749813090745507,1.10301981852632,STAIR_UP
2.3,1.39187806502841,-1.51164416406506,0.430460908554909,10.3318025605062,0.768203686540838,0.165132523633803,0.693190522294187,2.49715121170607,0.324714543867195,7.45454822622901,-0.295023812843603,-1.19447253166308,-0.394387215046697,0.228767424952075,0.292637558818526,7.91911430582428,0.327407385155638,1.15455960437862,STAIR_UP
2.31,1.47078375962294,-1.3868541972648,0.445106470904228,10.1130654908877,0.717311222512101,-0.222157578875413,0.893612035084112,2.42594286287867,0.332168431881295,6.72711662354885,0.0489683812923362,-1.62666418693782,-0.413950062233578,0.276429533057124,0.253577386480893,8.30278567735694,-0.0300174422479223,1.3291267776241,STAIR_UP
2.32,1.47025666926038,-1.20782910887943,0.463558219052606,9.590267291416,0.47285625729758,-0.288709770158636,1.13097381256295,2.29641308533793,0.3646240306227,6.10988318798255,0.471817582403276,-1.94719044281172,-0.372982947003729,0.270789854977435,0.221007070936336,8.68687339975959,-0.298345942374889,1.26976070920377,STAIR_UP
2.33,1.50966029207972,-1.06847191756843,0.466990204630464,9.6339958666352,0.471906467214461,-0.421873666032824,1.32598578182997,2.13211393018359,0.358117171534996,5.26789889433296,0.749862805919144,-1.69752283510182,-0.300798717040418,0.25829061230433,0.196470836847526,9.1056955636986,-0.495543836317481,1.11266375550949,STAIR_UP
2.34,1.52680678558933,-0.976879815401255,0.451221528909989,9.72622102036411,0.808615086775684,-0.501871147667835,1.39475278079852,1.95463357499675,0.313680203897928,4.35833417485963,0.881666235320133,-1.00136844527292,-0.244969797543638,0.270643732475984,0.187009593701234,9.41972347519519,-0.678607863584674,1.13000461025135,STAIR_UP
2.35,1.52230532092949,-0.95550118542291,0.44481148809651,10.1396016366599,1.38957576686145,-1.37304003627731,1.34409867082068,1.71537223874421,0.266560366990379,3.85480107793503,1.43361451716879,-0.56319224182016,-0.203214819826351,0.278361659878514,0.184756975905323,9.61335666309394,-0.599725202556379,1.21295253205522,STAIR_UP
2.36,1.50370545758362,-0.902552930548051,0.421264703958392,10.4535708085304,1.80266780559288,-1.52526926629853,1.28266361097402,1.49169271440172,0.243771730697035,3.14863027524218,1.80762756719034,-0.726476996483342,-0.162197649160393,0.278453513210654,0.188130184825256,9.80225770297515,-0.594747075800782,1.11374008591236,STAIR_UP
2.37,1.30993826637222,-0.85717294022099,0.383588865383161,10.3657492730087,2.06339711151464,-1.38756234353666,1.21567094520531,1.29470178840365,0.213592696980393,2.23668307799915,2.01580935756463,-0.9259502962477,-0.118853340104211,0.280803459044876,0.193998858254379,9.95809565241785,-0.532177056856248,1.03262669566704,STAIR_UP
2.38,1.1024944365603,-0.843083694303157,0.37170320204352,9.86722813787451,2.48463624430449,-1.67235634251038,1.0098489452646,1.05313830629232,0.177016085841679,2.02202095822136,1.99915290681193,-0.793496757777236,-0.10322524244695,0.279497163430784,0.200734409188063,10.1648100368931,-0.503098825969734,1.09719209453897,STAIR_UP
2.39,1.0080017626838,-0.877348302232578,0.392885013141765,9.94051506644774,2.9886725613774,-2.35284814293627,0.676026064753164,0.804456381736762,0.178962156841854,2.21371366494695,1.10576635930546,-0.172487917597867,-0.109507357249565,0.259851189770024,0.217675023354405,10.4487124367315,-0.357693188476238,1.19136616695018,STAIR_UP
2.4,0.855669883140106,-0.860099650772971,0.455723261488019,10.5257640300743,3.31173816356873,-2.97275736971404,0.407291783421467,0.530190234911011,0.206875364615539,2.35770349546687,0.0462381607683591,0.57067054302768,-0.122990142653911,0.246822254353091,0.243404930518697,10.7523970652017,-0.210964478215415,1.23486903073527,STAIR_UP
2.41,0.611823993472092,-0.828216900426462,0.50805622827672,11.0463984971852,2.8980729247386,-3.02035400263233,0.35562641016832,0.27915638340896,0.252396371409316,2.56152780289464,0.118166714319581,0.8783425012967,-0.116010884429398,0.197198953987801,0.272317999213664,11.1295412160477,-0.0512788484187315,1.00096971886158,STAIR_UP
2.42,0.340222064403239,-0.781004354503575,0.515897567585692,11.5911714941671,2.49792799751305,-2.43797640822743,0.479483873222263,0.0079770050375382,0.309846648946377,2.82002062887887,0.486924470902587,0.492001223323907,-0.119164509073197,0.149166891256696,0.298232944437614,11.4084476607295,-0.0531976056092384,0.826301386342372,STAIR_UP
2.43,0.152637364494772,-0.72623035483716,0.525492590894922,11.9779658526986,2.4088048265548,-2.15999458940322,0.530256070996348,-0.286591348399667,0.407596485558959,3.03524126473187,0.148138393109933,0.491251147408966,-0.134065169612851,0.131502402552008,0.320890440406374,11.6239582896881,-0.136820267641152,0.721813189639724,STAIR_UP
2.44,0.0398118655260185,-0.707544958264016,0.568106195129937,12.3284902494584,2.79499845507462,-2.09558772151317,0.432940544405086,-0.560482532382701,0.525522710571096,3.58583506480215,-0.684919569150213,1.06461108174641,-0.163693962370265,0.1215866355715,0.328501057777937,11.8915167657206,-0.120582736536922,0.788207195703348,STAIR_UP
2.45,-0.0116296834955417,-0.682191788102225,0.590399330318848,13.0384812775797,3.07331370625056,-2.08585173609654,0.330397776790463,-0.794107994979096,0.62411227295977,3.8150965590931,-1.3777157958335,1.66687162277412,-0.195963669542324,0.0953368182451568,0.315808925065991,12.051118939803,-0.130181017600702,0.796433668186518,STAIR_UP
2.46,-0.0679556098940296,-0.595975300321617,0.565266111687815,14.0449922989789,2.93713675734472,-1.97845343336466,0.311553913027021,-1.09073508482634,0.688813194829431,4.17384362552057,-1.55507143893934,2.2016881081211,-0.221904565532444,0.0868221503100617,0.282092312810355,12.2722757247814,-0.154745960075675,0.766410555640025,STAIR_UP
2.47,-0.156333896518068,-0.470811353419665,0.566888838942421,14.8598283798555,2.45425927714532,-1.29549681934874,0.357129378983417,-1.42776067287908,0.765592193907608,4.6933435130427,-1.88156593849873,2.44556298840126,-0.263509248117655,0.104239344431595,0.222523975012767,12.5281109158864,-0.512424426421005,0.703881640661461,STAIR_UP
2.48,-0.317442257997486,-0.311926591411022,0.549673954453152,15.754307983178,0.962407315706629,-0.398816979303525,0.333720645904794,-1.94017764492312,0.804530928791024,4.77321038279932,-2.5946663987898,2.29568123202186,-0.276075037043888,0.138254320814886,0.143410032172401,12.8290470671832,-1.03638615619931,0.489602152363841,STAIR_UP
2.49,-0.445778282867934,-0.134366719303737,0.496918484112447,15.4975145589357,0.0109353953767929,0.579486675054196,0.217743875610528,-2.59993281029831,0.756570190768208,5.36028434172088,-1.73965811654863,1.61225607783124,-0.262331605187111,0.195297196085114,0.0309120264757324,13.0698804399823,-1.65666690972304,0.538828467314806,STAIR_UP
2.5,-0.455356836842859,-0.0370401102159701,0.453565513167196,14.8890865423678,-0.895240320954733,0.925345730687292,0.211733843113551,-2.75163449033724,0.678864725128463,7.77490818872487,1.27269716262412,3.87640195070873,-0.22626073025922,0.231549484391298,-0.0987404225080411,13.2627352213166,-2.1401974927418,0.50326615696157,STAIR_UP
2.51,-0.278753014661716,0.0269310554245237,0.449084427752906,14.4591363713095,-1.14483896453842,0.915489133494897,0.0685339422913044,-2.1468797264986,0.773493056471162,10.402328546539,5.96449082694288,9.70848816435819,-0.251187197113615,0.324868501215649,-0.228217506826527,13.4949598020351,-2.52680675385095,1.58859759085002,STAIR_UP
2.52,-0.0417159318241155,0.11422659661818,0.451752472003852,14.3140566780848,-0.814638697399668,1.17799693575768,-0.0907219367766287,-2.9628076913176,0.7497165389669,11.7439624956106,5.07610726579234,3.79846520466521,-0.372813722106983,0.401721704942905,-0.310506263913516,14.4787273120924,-2.38291631806263,3.73097412941172,STAIR_UP
2.53,0.131285457961684,0.283977078177018,0.450400017082128,14.6647916943338,-0.294184536202839,1.82409675514313,0.154743522375478,-2.85894728988246,1.14430571540985,18.2885480796387,2.90304780050097,0.242534829898486,-0.333454225986837,0.249987079792323,-0.284388297130592,15.3798457668199,-2.00939365692098,5.43526766369382,STAIR_UP
2.54,0.17871753227221,0.516096049636801,0.425443790599195,15.0791425422957,0.0571923346385338,2.65829035158641,-0.636887428766242,-2.60356478310384,1.40386544102325,18.8700401822464,1.56644291319184,3.53604707165374,-0.0420861153523856,-0.0207998615927837,-0.16277268241485,15.2756497868061,-1.75020016863538,5.02017081589363,STAIR_UP
2.55,0.10690483977574,0.792786484502289,0.349650219923707,15.141399122184,0.484025679774453,3.61572371957098,-1.892845254154,-2.55961238847771,1.30697608030815,19.1507291964881,2.78378962563527,3.48243699431918,0.367007016659909,-0.446241679227001,-0.0252540260818346,14.1691493042455,-0.999207072322086,3.23990979401405,STAIR_UP
2.56,-0.0466452471472229,1.11203923151707,0.255264535719088,14.997442538053,1.15977359998897,4.52853848604381,-1.33133482758706,-2.29432395402904,1.58755891435686,15.4419636010808,0.877047502674732,9.30769394752904,0.558686437677766,-0.519058974437504,0.0555374750835766,12.0702397222206,-0.456464287013179,2.25279050325498,STAIR_UP
2.57,-0.201253367749857,1.46629991710647,0.130597729835227,14.4333520282447,2.1897987909,5.03986756286621,-0.80041604638044,-3.29715895505585,1.10046909937218,12.8022589168665,-5.33846674948188,4.81900499370335,0.464803358392624,-0.35243293302422,0.0861226064174032,9.71343313004182,0.375703848197614,2.1437197184307,STAIR_UP
2.58,-0.25076785597455,1.78322405079707,-0.0230057530213222,13.9229384386464,2.80800815414476,5.12650500729348,-1.16665936624275,-3.05574018837078,0.405104990094872,12.2330955557015,-3.16949191026001,0.330632895436502,0.628451444088656,-0.339811080012704,0.148679836819222,7.90319857129097,0.986838463490438,3.23704373100286,STAIR_UP
2.59,-0.251325622460035,2.01206021955063,-0.169578817124899,14.0689275972542,3.1086808095022,5.08907479866768,-0.537081254858261,-2.8198602560364,0.12981382396498,10.7670747276277,-4.09345984853634,0.368781491313626,0.643475740052686,-0.358579819340924,0.145237741759979,6.85841603816741,1.23166850819414,3.37820646699006,STAIR_UP
2.6,-0.330080212366617,2.26845898992107,-0.294186312063305,15.2226488143664,4.03345329347238,5.57590244145037,-0.0310284733562617,-2.4886426100079,-0.048826147538453,7.85961541097536,-2.90521785910318,-0.683222963653583,0.473477922831632,-0.313316383019245,0.0710841829210286,5.931640711759,1.15905984360322,3.02287725714013,STAIR_UP
2.61,-0.49419223908832,2.51472605311597,-0.388915193498742,16.9963382419487,5.67805451612302,6.10666694013975,0.322846204668152,-2.0172486668717,-0.174716858349787,5.25990540537512,0.223532145472251,1.3518495462855,0.39778025092871,-0.274770260861585,-0.0375959090155489,5.20730603990903,0.688378617001251,3.4962365026172,STAIR_UP
2.62,-0.854155938720153,2.50323437294877,-0.597183945417962,18.2255465264315,7.62639142957076,5.75092073916619,0.207170173832345,-1.78389042580516,-0.184681123171222,5.35759665236011,0.583564913188658,2.53779622555414,0.310868874646421,-0.260188722604778,-0.154321216198993,5.5208280236522,0.307804755251148,3.32658531175139,STAIR_UP
2.63,-1.40273379189186,2.37910324421822,-0.831143875074783,19.0050752578623,9.19765520564006,5.72374649397074,-0.0976379016121636,-1.65874583308434,-0.101234507607169,6.64786013218495,2.01866262050695,2.83801366615346,0.238795455368691,-0.13831082484839,-0.295054233300675,6.64475332008006,0.0051762221189625,2.98391907309302,STAIR_UP
2.64,-1.39432941444966,2.35378931928868,-1.11168398932793,16.929504035152,10.7767774157635,4.40428083384339,-0.532081258759946,-1.62958435622847,-0.0038235549912892,8.25773957444406,2.43180812532438,3.07952712019748,0.258558258414708,-0.0896618312199965,-0.463016777799777,7.66990854699252,-0.23737231153508,2.57722329850639,STAIR_UP
2.65,-1.01775725708675,2.12677755564293,-1.27606587101864,13.7832524431932,11.9090637834672,0.0067136563188176,-0.932396708024707,-1.73703356389667,0.0224526958141639,10.0664869288268,2.43796190720352,2.7847414398393,0.330870795062716,-0.119878904870492,-0.63120641458438,8.46552999311741,-0.224630716184395,2.10338414967139,STAIR_UP
2.66,-1.7999422060889,2.09312054838982,-0.917363569417176,13.946109377335,6.59888433957909,-2.71483665533961,-1.2975605589512,-1.89876901323505,0.0618885319662482,11.5706267962395,1.45177487167291,2.37942823065197,0.459455270875751,-0.146154177710828,-0.768517676061079,8.85824591916806,-0.0169377475966633,1.6415638732189,STAIR_UP
2.67,-3.1211875121454,2.56312319618822,-0.572820573530254,14.1636433928202,-0.587044837493937,-3.27216614329812,-1.63229791909835,-2.05311056024321,0.0920480430085739,11.96953180498,-0.341375658608245,1.81422580253761,0.611454830811991,-0.127933949072262,-0.81331959688258,8.83157126450822,0.12668039179734,1.55376955869183,STAIR_UP
2.68,-3.44819023133161,3.16632882328478,-0.611329496788584,12.982062245507,-2.91039509933199,-4.0655998296272,-1.86618041368021,-2.16977631504431,0.102373097248167,11.5247165701121,-2.82061418697983,1.28467414243425,0.721613346634022,-0.118027629816451,-0.755377528301453,8.3534441943914,0.331695334716395,1.55000327803546,STAIR_UP
2.69,-2.99181376865831,3.36750114998328,-0.558469940046515,12.4143775854212,-1.74417773771979,-3.30283431773282,-1.90475247875173,-2.20509926482334,0.110206673313765,10.9898809552687,-4.8514361521986,0.292087979880699,0.749371459506272,-0.132583631135628,-0.611457646730387,7.97735729488057,0.750818969305888,1.45924295739254,STAIR_UP
2.7,-2.51021006681188,3.51741158108478,-0.370146812535188,12.1746872873095,-1.09086320781939,-3.36909696684913,-1.72452324603796,-2.16613292337291,0.122305218284491,10.4816913594922,-5.49282555505586,0.0159739495067546,0.754621154135624,-0.132899126700873,-0.443977419445104,7.9395978403646,1.23403278640944,1.20189122770765,STAIR_UP
2.71,-1.92148931135799,3.38689158677859,-0.142165012407512,13.6216589949874,-1.49359280811604,-5.51277390910879,-1.42015811462922,-2.06484390502607,0.121323499907083,10.457125303134,-4.67757332914945,-0.320951039790927,0.690174779588487,-0.151622661273183,-0.289683180628382,8.05044860296612,1.85577885504772,1.18769474041297,STAIR_UP
2.72,-1.34951370812651,3.58776143241515,-0.0731086088806602,16.0525146239448,-1.72306248618549,-7.6818026177405,-1.08013766687409,-1.96501964811915,0.0897469925010149,10.2211087212383,-3.46386238897397,-0.0967702510857311,0.620807127557364,-0.173820280448971,-0.178488381524346,8.22381513358221,2.40726281972053,1.23060445934383,STAIR_UP
2.73,-1.57903433130331,4.50520796436507,-0.324357895470642,15.4762263122137,-1.39012153278976,-8.87025225134665,-0.862518035602711,-1.89942784640957,0.0250319553729215,9.83259564396262,-1.81062604592987,0.0519170317310633,0.546666344656761,-0.202344855988041,-0.124948889256689,8.47740376441364,2.75386555567699,1.35447613999376,STAIR_UP
2.74,-2.04433054880983,5.00072408167143,-0.591055251841984,12.6308069134244,-1.70139070498453,-5.35551473381858,-0.83593220979363,-1.8560989146621,-0.0775987686204774,9.35116103552748,0.0604511232772554,-0.0033908003569191,0.453239090925382,-0.238897264566897,-0.132492966298505,8.73978360190118,2.77541815657411,1.28794762344475,STAIR_UP
2.75,-1.87710030020147,4.55314360242382,-0.660637994229529,10.5076491545684,-2.72291402911026,-0.503998120790567,-0.891446490602257,-1.85296721782671,-0.187008337067369,8.85725276428519,0.751113849693474,-0.073930110516479,0.3563942832473,-0.26693530688032,-0.171767455192921,8.99877455269314,2.49745145279583,1.26467916411921,STAIR_UP
2.76,-1.45882461539892,3.98292515789899,-0.684347249566377,10.0590700898181,-4.59979439728679,1.27969400765219,-1.0343181569966,-1.85771964378403,-0.272246892682366,8.83038696685245,0.433547443553413,-0.0583982316164984,0.300384754295878,-0.26031854646561,-0.224505412223843,9.16606550518436,1.97499519645272,1.45634589746877,STAIR_UP
2.77,-0.680579519454293,3.62133788297381,-0.708553882682357,10.0543911672486,-6.0968435529431,0.645755954515657,-1.15523216718517,-1.87982434957535,-0.339087125162442,9.23070407460143,-0.0257623316984499,-0.264646449947613,0.272577967110183,-0.247157131291796,-0.266954209516119,9.12899360116208,1.33173533559829,1.36803585645745,STAIR_UP
2.78,-0.0950410395900109,3.42011222857912,-0.570418677795813,9.25841733082141,-5.3671266646455,-1.25934385197383,-1.24758916285183,-1.86948596631532,-0.339525699440401,9.78361787732086,0.0498623928261591,-0.473762260826995,0.278344214495961,-0.208820265528369,-0.301988884771252,8.90158120753152,0.955532773075111,0.859291384816758,STAIR_UP
2.79,0.265775875183547,3.22426527591972,-0.439638381825486,7.7454639159607,-3.99781024364104,-3.37244760631251,-1.30138342332931,-1.87827040863292,-0.279781244591494,9.40679264769738,0.383061207982977,-0.694980667569743,0.287108947238798,-0.151879477484097,-0.331105288691999,8.49321186366111,0.761888385517861,0.79839251846962,STAIR_UP
2.8,0.639008313595133,3.03751587630025,-0.397900762549994,7.57423874815637,-1.93564192621806,-3.87262103821015,-1.3561448004564,-1.91936044865409,-0.223711824372581,9.04952210067256,0.175609863676454,-0.91429818848733,0.307685803367305,-0.0900328150379325,-0.355268103354547,8.00668933862639,0.790837136755871,0.920976939664453,STAIR_UP
2.81,0.88590242522438,2.88703218276221,-0.469665460053465,7.57510697461875,0.0193831536878942,-2.0445434160519,-1.41197589881072,-1.85429508656436,-0.230526683932428,8.85906671428445,-0.729622341747836,-0.721165036259679,0.34553430608314,-0.0629590034228653,-0.375367096674271,7.62025691673636,0.895830521916844,1.0839669473413,STAIR_UP
2.82,0.655281485390677,2.75373457104268,-0.541691682072254,7.88004871678851,1.48547079820523,-0.700271810416913,-1.50284489878554,-1.77754602197979,-0.253841612264105,9.24728811991072,-1.27220551040984,-0.352548381588617,0.362418309413663,-0.0373801536708602,-0.379489165807237,7.54531607195124,1.10331124863817,0.91874970857706,STAIR_UP
2.83,0.190959238963707,2.59212234843212,-0.56995531885938,7.7997664454706,2.59311390943093,-1.05316059531775,-1.59692353440811,-1.70589494730244,-0.311146603316353,10.3152512458748,-1.88129794605644,0.122473471671012,0.367576628105489,0.0232552139741888,-0.358990041681949,7.67384253806426,1.46385142643598,0.643889739443857,STAIR_UP
2.84,-0.185338299166471,2.45123861421709,-0.551052327071275,7.13761537351737,2.39605815915451,-1.83941508176334,-1.72793710773801,-1.62570769377467,-0.308400361181497,11.5281988185197,-1.79992063198643,-0.0511269048894876,0.380601565274752,0.0973965969988627,-0.320577900000895,7.99885413078343,1.79707550937785,0.403766295021388,STAIR_UP
2.85,-0.444135862788867,2.33989557685444,-0.576820187117752,6.70391005420408,1.77912034513206,-2.27327476879253,-1.79744446513024,-1.56110818265692,-0.255068569334649,11.3822396584348,-0.650984972242181,-0.214677591931294,0.380238665442677,0.184249861591777,-0.275792241957091,8.41167609744208,1.99863328728722,0.57672152848684,STAIR_UP
2.86,-0.649266332036961,2.21118168223417,-0.550684315486272,6.74638666580675,1.19331667340561,-2.11721797418661,-1.81350312683946,-1.65354487115152,-0.242328934705207,10.2955203352959,0.28682047163671,-0.879027844677865,0.326380259210569,0.226042695703656,-0.23387848700978,8.82327934918973,2.11303075629329,0.985128707043383,STAIR_UP
2.87,-0.807177984819876,2.03418155328257,-0.490745645090837,6.2687575598027,0.256708619328564,-1.98180560300348,-1.87619600231093,-1.67607862597302,-0.224791143807403,9.6744857232566,-0.0981717946831966,-1.50251495694823,0.277732215073493,0.215939562063555,-0.210962177057512,9.23582757536078,2.21310188598236,1.0513409080613,STAIR_UP
2.88,-0.826827074845261,1.76182416431459,-0.445138462497906,5.13019333828155,-0.792583298816349,-2.18921865116781,-1.99369942155611,-1.57787198973933,-0.221960308891814,9.29218103064622,-0.638665608200164,-1.66829752767018,0.238400254478612,0.179272892544106,-0.192260607624461,9.66200537198034,2.19932043548813,0.878337176246973,STAIR_UP
2.89,-0.712516627811734,1.49122800347288,-0.411201310083109,3.99978123563411,-1.06976495751348,-2.31021433724764,-2.01857927851496,-1.55244788504533,-0.247277701326671,9.66948253825549,-1.57896954270825,-1.7757422371417,0.212132343034966,0.186569080503229,-0.197982072689028,9.90485369459452,2.20883425728396,0.711705676361104,STAIR_UP
2.9,-0.650555862477142,1.17758011862314,-0.33459462413539,2.28716212845664,-0.281168339709238,-2.19957621920577,-1.95618363010939,-1.49971854214112,-0.277386850239388,10.5550997426819,-2.44271316920857,-1.86039500334366,0.198752069744691,0.205621400972052,-0.215075751792185,9.90320199372847,2.08658593463573,0.958296932217158,STAIR_UP
2.91,-0.772260086184883,0.768736093960621,-0.212525307193815,0.804208266039812,-0.414921044480811,-2.14665933218583,-1.85875360496901,-1.44042358256633,-0.274110436477732,10.7444336300639,-3.00487340602881,-2.31849605277209,0.197940793348984,0.205251511522573,-0.225597964263107,9.79382636502335,1.95993189335726,0.960251653501653,STAIR_UP
2.92,-0.764820812387103,0.482394102846148,-0.168479735607504,0.118616800188363,-0.392113908980542,-1.72226915853418,-1.63427696044856,-1.42579544561929,-0.281965710715639,10.0362645168256,-3.4882635810659,-2.7012323394865,0.203005497032593,0.207606756798098,-0.231848177999939,9.6858873149913,1.94600121308696,0.685291727319069,STAIR_UP
2.93,-0.593819836996288,0.21769953747442,-0.172031299606278,0.0801712825247823,0.0649467107750084,-1.05268109908478,-1.40879375531842,-1.44349297346439,-0.358764323601474,9.91438163943135,-4.08967218631622,-3.11549315158709,0.211008490803291,0.228549825857204,-0.235923084036627,9.66546971625134,1.8994310474818,1.05638457715323,STAIR_UP
2.94,-0.444528418335335,0.0107773994035649,-0.182445593760232,0.354946535878368,0.369942300809754,-0.172669902830026,-1.1457798177064,-1.46720935513901,-0.467750141468136,10.2609502265981,-4.55566580447153,-3.44799776288879,0.195161159853455,0.180135966154041,-0.236102378685247,9.78449631635942,1.98269481720683,1.23379107100106,STAIR_UP
2.95,-0.378941968848537,-0.238363679716875,-0.200553995227965,0.675683458292678,0.516636649081443,0.640017858847083,-0.706659924774161,-1.42027470847017,-0.570232445824147,11.4355701559425,-4.22915128085087,-3.80567925352407,0.175156939349584,0.10400699502395,-0.229652016331518,10.0067466945915,2.201004355934,0.642180616573057,STAIR_UP
2.96,-0.329091763357476,-0.557157579606191,-0.236568023658828,1.07855998384489,0.689963516569715,1.06744088359063,-0.159208703510897,-1.1705104371187,-0.613498175872064,12.8040726760161,-3.20056985821969,-3.25198078316483,0.201221380791777,0.0400795706397853,-0.215821060484195,10.0864657890447,2.66929661834192,0.223827409850661,STAIR_UP
2.97,-0.235048422518626,-0.941688393258295,-0.291069090342397,1.88542227587592,0.993679855022661,1.37533167372086,0.396551883042185,-0.893902018896716,-0.629953851335443,13.5137689983802,-2.46490607578793,-2.20245566132613,0.202629970103723,0.0203372748832959,-0.180588133966459,10.3034276510172,3.16447038878926,0.197738015386438,STAIR_UP
2.98,-0.201874663919753,-1.30560010681703,-0.304221796007604,2.63160465296731,1.35308023844702,1.28255230726762,0.778075301345304,-0.694608510568261,-0.646218313674636,14.6298588276952,-2.29423666082082,-0.379047666797494,0.146215363311023,0.0090520795858049,-0.144013096379097,10.6058566252728,3.57846729937877,0.235356739000981,STAIR_UP
2.99,-0.201874663919753,-1.30560010681703,-0.304221796007604,2.63160465296731,1.35308023844702,1.28255230726762,0.95713601895109,-0.416064013365805,-0.621868615755496,15.8315430677694,-1.17935791904507,0.887724923114232,0.0527211452191561,-0.022749958060783,-0.0967203633972014,11.2753431299432,4.22872807635045,0.230812158207756,STAIR_UP
3,-0.191284119439616,-1.72840623612943,-0.327657936334739,2.9687515811505,1.3614607368468,1.06782102475291,1.04132897717467,-0.134805413683646,-0.557756091948173,16.0269554354361,0.225686581689471,1.77252571270346,-0.0615677116031353,-0.0801143056986017,-0.0308048445968571,11.9008421477685,4.56718410981294,0.220191709743272,STAIR_UP
3.01,-0.0409251555028483,-2.12361845946321,-0.323945483853744,3.93569573503491,0.767431523654746,0.482446758007324,1.05588988372429,0.0314455196101094,-0.523539651791456,15.5565570913759,1.62476951674278,2.05702989245556,-0.197808792954669,-0.147466071844751,0.0301469582428022,12.296988495468,4.66754600159097,0.11179780499909,STAIR_UP
3.02,0.15865617994564,-2.2255178508126,-0.353588043775864,5.4900223384552,-0.4800303939974,1.77311702576508,0.942557928904928,0.137379000620937,-0.507702954057082,15.2770899876738,2.1454053679973,2.09315866475582,-0.304882926185705,-0.188321707513417,0.0872043032848974,12.5467673589687,4.54872560195957,0.144892217287907,STAIR_UP
3.03,0.511091720717454,-2.02628295212143,-0.442369241538695,7.61328823025638,-1.26621415367115,4.3247671578374,0.731573873103375,0.310654072490022,-0.465597538619089,15.1591377274345,3.05739936371863,2.32445562072364,-0.414690674647884,-0.234239980881905,0.121827906115328,12.6703379315468,4.38221021115295,0.268907818504498,STAIR_UP
3.04,0.877357436184306,-2.38301711045986,-0.544655899604974,9.11147612517158,0.0749632125309983,3.57925175348667,0.483146036317722,0.399398421043174,-0.413443762305502,14.4573388812005,3.66049124913922,2.62215896219306,-0.487665440109887,-0.202328945948432,0.128987331225722,12.910753345373,4.06365447582053,1.08253030225974,STAIR_UP
3.05,0.711548282055965,-3.0661715894805,-0.546619575268928,13.6693078097011,1.84586774621886,-2.05176228317131,0.159842980998162,0.449218514852719,-0.388093342493856,14.0219601029044,3.34214098258235,3.07977561259658,-0.559090791927069,-0.176275549022884,0.0983709753168629,13.5958165770339,3.50138670660015,2.19036643235397,STAIR_UP
3.06,0.544292374723392,-3.00335805316598,-0.60549768317187,17.1519244758244,0.625049265857741,-3.63256919911348,-0.229599929461664,0.508454392178806,-0.382279224125505,13.7812897761968,2.48894963054655,3.51243690144548,-0.610738197867367,-0.218653446107123,0.0292277727126134,14.0216872684463,2.9214406979438,2.0649755584145,STAIR_UP
3.07,1.07127405847259,-3.03168533741726,-0.6921698334317,17.6216063337897,0.773412502046471,-0.950800180847705,-0.675048607800321,0.572025132960543,-0.355725337706343,13.7997780641432,1.51065898827316,3.48980678013686,-0.593681971200464,-0.279124458228543,-0.031941576390842,13.7050950574618,2.53657036071592,1.41737719599765,STAIR_UP
3.08,1.28392423257206,-2.96888124787305,-0.875949404416604,13.9279614219544,1.43914298437179,2.30501753554138,-1.05490757832876,0.646680655987734,-0.287918490296671,13.9881552329986,0.925217607540045,3.28875327171872,-0.593085924933565,-0.392351523614758,-0.0735038876676194,12.5521806058408,2.03132854649754,1.81589452049845,STAIR_UP
3.09,0.472625165490597,-3.2841186210166,-0.885907280991263,12.2874698193983,5.82712203437282,3.73141403601816,-1.25927157218814,0.739939371881694,-0.178650750768047,13.9338864675046,0.614746831862081,2.77481252086759,-0.563939951085864,-0.458037068041919,-0.0915720319477896,10.7520289417601,1.11241893870079,1.53055496395703,STAIR_UP
3.1,0.730010182732195,-2.97561309496597,-0.454525752606106,14.1283340594336,5.68564293793991,3.74709239013237,-1.16829535786756,0.897862616365119,-0.0210628268497058,13.8080892767611,0.11838006021326,2.37969494702642,-0.363027130875924,-0.288449462226892,-0.0925650955853192,9.12413909367502,0.469894437626803,2.18863159143899,STAIR_UP
3.11,0.517880763660034,-2.39288392933715,-0.268053539035622,15.6876174287646,4.1103703286968,8.36302395447386,-0.876381553891904,1.23358819489247,0.154841018832233,14.4713546705868,-0.85813820754177,2.82786845390592,-0.284995459952367,-0.111204807590382,-0.0572471292681749,8.20269380530363,0.153110033861416,4.5790240010569,STAIR_UP
3.12,0.333140198350154,-2.14585273981964,-0.335835255946626,16.5614926225633,3.85263847624144,7.52508770016461,-0.501940130445374,1.78048380198869,0.272174014555737,15.9104552542542,-2.48300011995692,3.62834947050875,-0.305229342943703,-0.118607521365271,0.0172125231172983,8.0407188607917,0.0547199344570015,5.17820093675964,STAIR_UP
3.13,0.086493942300928,-2.08102900280369,-0.202521858654372,14.3771707996789,0.107683510262561,5.44109757791538,-0.101486322039682,2.66988291874312,0.416554791277267,18.74762597454,-5.34539075227135,4.97442579568871,-0.265385206653443,-0.169683590727295,0.133442727759981,7.83598733169723,0.380151181068843,3.98667532688204,STAIR_UP
3.14,-0.0401342484411042,-2.21592302140513,0.0627634057747761,11.8842566263192,-1.37454360302171,1.97757292807604,0.388383887344198,3.65780606171515,0.640963664819354,21.1258383714368,-10.1316694081362,4.55035013789245,-0.166820140837231,-0.16902861583233,0.260059875348043,7.60595682549922,0.863793369860745,3.31367606151773,STAIR_UP
3.15,0.163246681337682,-2.2495344451892,0.336839693228844,8.87453233920576,-2.43674891518355,-0.175632974866134,1.18168350481943,3.98935527746413,0.832467260037864,22.103086601116,-14.0963208598344,2.43966696369175,-0.216983812560842,-0.148505115473114,0.365722492466251,7.82593220997567,1.17791651912255,2.74720056473475,STAIR_UP
3.16,0.52110476068953,-2.16663904931129,0.459912344996895,6.89109041333927,-2.16281176394691,0.473175958858372,2.0259661625151,3.91889422422254,1.04336232449782,18.6132821985059,-13.7974448034119,0.387485379253176,-0.302787845660825,-0.0699631918863687,0.450418552960164,8.22586784127726,1.57286404723388,2.14620171739288,STAIR_UP
3.17,0.84709855076799,-2.11422516944787,0.416474765172636,6.8820120633687,-0.850345658317137,0.763978270366271,2.62386761059342,3.39922940078251,0.982148107002788,11.8806065833007,-9.55879028197364,-1.36453774717846,-0.354081853293386,0.0064569251881363,0.524138067831221,8.58883463950423,2.14249639769285,2.0812008299546,STAIR_UP
3.18,1.06593455422219,-2.05280025470341,0.261561925866254,8.54559939959807,0.454812313155,0.628222215332069,2.85742893851445,2.53438445981753,0.536216699279307,10.6041900973534,-3.37686575947327,-3.34786435477554,-0.410544849527513,-0.0088316761753092,0.567687824500982,8.74065111464969,2.39323245589266,2.0035944170078,STAIR_UP
3.19,1.12118110067605,-1.94630661299285,0.119170278680575,10.4558761920699,0.750141457575726,0.287553522427473,2.81856504867607,2.29015489088595,0.118275741971035,14.2277330879848,1.18854697679255,-4.23148492997475,-0.44997376831944,-0.091630666689596,0.566886668960663,8.525386523239,2.2633070546118,1.78050731438296,STAIR_UP
3.2,1.08015864480504,-1.84307423326083,0.0954285028302104,11.8075608526305,0.817756220810981,0.0536755885569672,2.57383780299981,2.80712253287836,-0.0296964026074693,15.4706475354452,3.47126139525472,-5.00095586444552,-0.432595783443996,-0.160257085591169,0.527056288674712,8.00594037476939,1.90246711344619,1.62079729183764,STAIR_UP
3.21,1.10854953556982,-1.77227583996766,0.202884891965075,12.4327410905045,1.06655402714341,0.0523869432773565,2.38818826078617,3.44353829001131,-0.125614514546246,14.2019869879834,3.80330650593809,-5.67705700145185,-0.408042547809113,-0.157784655877612,0.450815313587562,7.66165920382811,1.26205274931319,1.56422356222384,STAIR_UP
3.22,1.09964168200485,-1.74451947936932,0.315468840117731,11.7779775945535,1.25430948700444,0.231022445499612,2.28685910900816,3.9883506990854,-0.17121703840463,12.2530995167911,3.18642875334646,-4.83892874838436,-0.367910799129777,-0.129054300048083,0.368071433315431,7.76788276433509,0.552390140964235,1.32456365427054,STAIR_UP
3.23,1.08326130181977,-1.71560767683943,0.323652482385119,10.7979724826576,1.40222927089627,0.271838863428253,2.24525626534697,4.05602682544152,-0.242849761263394,10.5636488822103,2.17776258064036,-3.08163818840901,-0.357234200078408,-0.101352505643713,0.295358139414947,8.18831761350623,-0.116741096449495,1.24451094337291,STAIR_UP
3.24,1.13071978602286,-1.69826770920023,0.305485990930569,10.0399907909613,1.73590089263432,-0.0593876133051242,2.01441089142223,3.71807304274089,-0.311833670935476,10.6922940063198,0.995225975692863,-2.74295444899082,-0.370511329382544,-0.0874337566810103,0.238039275850327,8.81245814809905,-0.609105291807912,1.15980131795069,STAIR_UP
3.25,1.16944410725185,-1.68309536962844,0.310534503770713,9.76383290114769,1.84625534084084,-0.314488942271662,1.43065135137656,3.55935599505019,-0.254998475539398,11.4628831119745,0.181494492313951,-3.60256963968663,-0.369077623789884,-0.0795981270242223,0.219995062958916,9.37183508068377,-0.980610007550197,1.17577401123856,STAIR_UP
3.26,1.19610890132031,-1.65828589063991,0.371534908615276,9.7143127021852,1.72249472858789,-0.686246812208415,0.782839550459462,3.71137374537016,-0.0025260601695961,13.1888954230591,0.699461459970505,-5.39148506512492,-0.341584570867513,-0.0645592057022297,0.222036269734549,9.87090973467909,-1.14141039661348,1.41786280253497,STAIR_UP
3.27,1.24631691259133,-1.66898750510331,0.442918310559429,9.74411712326391,1.87409883926728,-1.19273323200609,0.56528482882468,4.11687205397094,0.420616975124054,13.4201143400467,2.0577688432379,-6.28044938265408,-0.275211064472368,-0.0487863578391468,0.231907051680538,9.88071451129551,-1.2279193772699,1.56840030760496,STAIR_UP
3.28,1.2385816424143,-1.68407193748152,0.485971041256189,9.87685484500269,2.2319277726967,-1.30649332445046,0.648439284525904,4.30211853630073,0.652213652301214,12.5978270363838,2.33541847700215,-3.96940313366235,-0.202327136224066,-0.0343623974412441,0.246108895603867,9.36929067151736,-1.19945047016606,1.50714850356163,STAIR_UP
3.29,1.20415004999706,-1.70950941670431,0.466527822323166,9.58449164813328,2.38421487459613,-1.41350832132001,0.473723266769378,4.4282218607473,0.640616975287404,10.7216693008591,1.38233481290888,-1.30633490938856,-0.113570224084465,-0.0331127717731821,0.260464041489936,8.6984037413965,-1.06295183137338,1.39488074980246,STAIR_UP
3.3,1.20138602138208,-1.73694085170202,0.429448002760207,9.4840688507999,2.48816321378392,-1.57998129261356,0.243372215055999,4.04477592728647,0.526074703461584,7.17517545258301,1.46971911039973,0.158781892810526,-0.0329855850191764,0.0087930537727082,0.26385305449676,8.14179818144355,-0.871124744777596,1.34977604864823,STAIR_UP
3.31,1.15862433674913,-1.71586801004794,0.419350416631749,9.77269809302076,2.26985253074938,-1.09041284820374,0.260395907682991,3.28639305798568,0.444049466228146,5.98313807066494,2.06531119030821,-0.223674594144004,0.0122542892550177,0.0768690963794722,0.268521617535868,7.9428152047449,-0.597473253753591,1.43057644043051,STAIR_UP
3.32,1.14705602514934,-1.66820369918983,0.43668377356657,9.83471496686973,1.55221859799183,-0.709173236175159,0.162584677381944,2.9930899776543,0.454485604929448,6.52944187176228,1.49703082393712,-1.58663059514669,0.0276067171758692,0.11320191114461,0.274843138621173,7.84858336280742,-0.244515816769746,1.46335350983938,STAIR_UP
3.33,1.16868415589201,-1.63957538929549,0.452043981880149,9.76311488473852,0.537509089915381,-0.593398025891904,-0.075238554894004,2.92982611268999,0.506325415410538,7.46584026559813,0.757360020607096,-2.64589843658092,0.0428238247979726,0.1426042665696,0.284808293988317,7.96846050563852,0.0003505003571537,1.16674384914001,STAIR_UP
3.34,1.21948553454574,-1.60247295366845,0.464605740025854,9.39951143057621,-0.249173462574654,-0.500438890839063,-0.1525094410616,2.83363796716723,0.522517774136691,8.81349372391692,-0.309512332653156,-2.86972617084507,0.0166668162842507,0.188365246565742,0.290480294789063,8.07251862361034,0.305550558993718,1.12591227794172,STAIR_UP
3.35,1.34988432529206,-1.56115559399929,0.523882080823383,8.96382703607594,-0.43766859065521,-0.403588900043766,-0.0826869717399837,2.66713122897731,0.498450738177279,8.86904980344228,-1.04096594552491,-2.47653930948734,-0.0467286130966174,0.201918763410626,0.292547029463701,8.1460763761664,0.607306005736142,1.10030086276793,STAIR_UP
3.36,1.51683175038164,-1.51690233076109,0.609846769075301,8.9598102103226,0.254051072878,-0.425326541397174,0.151443622307296,2.46173270139734,0.438118671824101,8.07202666819329,-1.52363702208442,-2.37320745785027,-0.102055695882827,0.211555071944213,0.284453790008137,8.13257587324656,0.76301208217242,0.966408691552965,STAIR_UP
3.37,1.6454537477701,-1.4025881388231,0.646251764809182,9.40065036792166,0.83796175556111,-0.432998826537784,0.469546290961671,2.3069383742342,0.399748457746494,7.14906675380252,-1.34289735948387,-2.37923405673535,-0.145429850296235,0.243126851957886,0.263442123008983,7.95457183742503,0.858347025726321,0.924793433427251,STAIR_UP
3.38,1.72797873702734,-1.280008126603,0.623440629719446,9.56346859977924,1.14090625695413,-0.342918102517782,0.748015632809959,2.20975445313369,0.379516960138925,5.66101859759821,-1.10419927096782,-2.56386776413131,-0.200948156784761,0.304601798642394,0.224773290798631,7.83785941041449,0.815292117378453,0.930332742031451,STAIR_UP
3.39,1.64030811059703,-1.14649088431304,0.537083821342575,9.86654671783499,1.5701641339117,-0.143716567000753,1.1173732881719,2.03578225330479,0.348337242140206,4.73174741379021,-0.664256209468021,-2.70768267938486,-0.216103818748088,0.382141134593684,0.18784831139021,7.82126294585723,0.568598161094389,0.934748495142694,STAIR_UP
3.4,1.64030811059703,-1.14649088431304,0.537083821342575,9.86654671783499,1.5701641339117,-0.143716567000753,1.1173732881719,2.03578225330479,0.348337242140206,4.73174741379021,-0.664256209468021,-2.70768267938486,-0.216103818748088,0.382141134593684,0.18784831139021,7.82126294585723,0.568598161094389,0.934748495142694,STAIR_UP
3.41,1.27802967819455,-1.0196625614802,0.341365659100738,9.1547561645097,2.77076861696838,-1.39071957049699,1.45285117984541,1.75545589028258,0.312895044739027,2.83159403718518,0.556188838500805,-1.57478709336499,-0.18845066528098,0.435744888860221,0.159403881706774,8.02149394768427,0.403586999482235,0.897696293188752,STAIR_UP
3.42,1.24715418612651,-0.978305806042256,0.196542937405912,8.36273086224833,2.96608686274304,-2.11055407232446,1.45920214999243,1.45327619695702,0.344032336104238,2.26303441384293,1.09338488378358,-0.561118975997159,-0.128150972677273,0.443524548166446,0.13979426003469,8.35520129108793,0.244568274002142,0.980871567106182,STAIR_UP
3.43,1.21450439029072,-0.919308405179789,0.165314183525961,8.56710835446957,2.67183552384792,-2.19974379143729,1.45920214999243,1.45327619695702,0.344032336104238,2.26303441384293,1.09338488378358,-0.561118975997159,-0.0611949467040271,0.414613392099205,0.128740251669865,8.69396248849739,0.15038796171293,1.14295917080804,STAIR_UP
3.44,1.2002458043156,-0.945180855972942,0.214308770317075,8.93995099500493,2.22010424214095,-2.42262781994719,1.43048247307635,1.20025205520496,0.377950805862208,1.72616436253879,1.0446964672418,-0.918704842698651,-0.0047815867040111,0.348094927607888,0.14914745483544,9.02342990646932,0.0989248835928112,1.12961337490487,STAIR_UP
3.45,1.04387752309494,-0.973217687611762,0.33163267926318,10.2175605440152,2.00508970841101,-2.06507513361052,1.4091838399043,0.880265773838913,0.33101700087928,1.47912046361416,0.492955002919917,-1.84967341508643,0.0202610030993349,0.280954293547977,0.191863419248651,9.32118791011055,0.0424921991442553,1.123852035349,STAIR_UP
3.46,1.04387752309494,-0.973217687611762,0.33163267926318,10.2175605440152,2.00508970841101,-2.06507513361052,1.17398295944916,0.616337285273859,0.240417236776298,1.5285377497255,0.262190878431595,-1.20568165458621,0.0140450839030659,0.236473909182379,0.250233799922776,9.58154731460674,0.0194828203621574,1.11573170311277,STAIR_UP
3.47,0.772129588588925,-0.869789490962628,0.436922180250055,11.0592718669143,2.20212401349707,-2.15544631076975,0.817321736952357,0.37734779828201,0.190053894252827,2.0438381357265,-0.145977329710463,0.179335307793583,-0.0007493408384613,0.211659980719165,0.314205512847122,9.85141365255619,0.0632033236275235,0.928384086003536,STAIR_UP
3.48,0.57988455129149,-0.770310682474431,0.518927231238986,12.0838927315092,2.99791904008584,-2.04965386173252,0.564446827090528,0.113800606062909,0.196481589932527,2.57807628261111,-0.355871066490432,1.0457063995663,-0.0250883502337611,0.200153295744019,0.360375363282542,10.2186909320909,0.0789340166542032,1.01966343692329,STAIR_UP
3.49,0.44674454224199,-0.71119430038976,0.58275056721437,12.7488986318296,3.5098192100392,-1.88676248068718,0.544554543509557,-0.175027876438341,0.25185661886195,2.90667301462334,-0.408959732459828,0.907520080071111,-0.0481244064418392,0.200780411847392,0.375493687296298,10.6826128635542,0.047104214359407,1.01603991474809,STAIR_UP
3.5,0.281002531050273,-0.657702190991706,0.579757490082788,12.3676096334249,3.47468935054383,-1.58061365335217,0.624074992558489,-0.493153524401563,0.332514279166283,2.90372145264644,-0.555160343543022,0.60054035181486,-0.0611776489358001,0.183918331787215,0.359034461884253,11.2584325751233,0.0062376139889864,0.587029524280812,STAIR_UP
3.51,0.0394730559621165,-0.657616527158968,0.559966918127243,12.0629451955852,3.41739918165394,-1.32603170424868,0.675788607321272,-0.799382870613043,0.469366720649283,3.62601105003691,-0.839656402215849,0.741984518887327,-0.0305575678156068,0.155877384076305,0.316019039908764,11.8223659022415,-0.0316952976259779,0.117598854923381,STAIR_UP
3.52,-0.127671847393225,-0.651631285384554,0.559350921998687,12.6322895635652,2.78276254805035,-1.20464791300093,0.612641198179182,-1.07659378229086,0.647696300520742,4.72773855605702,-1.07238370921629,1.57321019792086,0.0087105685887291,0.0776498939941015,0.284756831955808,12.2508940296194,0.153055234416934,0.124567312590594,STAIR_UP
3.53,-0.285430033254552,-0.659542497542393,0.579222505761539,13.0676142541737,2.03993230096948,-0.899719264049294,0.455570914456115,-1.42859355789816,0.802003286713633,5.301156169865,-0.97850357345335,2.51687855096737,-0.0185436216797325,-0.0239292101718698,0.257670609705656,12.3039081420043,0.30032731278765,0.24413384655825,STAIR_UP
