time,left_angular_velocity_x,left_angular_velocity_y,left_angular_velocity_z,left_linear_acceleration_x,left_linear_acceleration_y,left_linear_acceleration_z,right_angular_velocity_x,right_angular_velocity_y,right_angular_velocity_z,right_linear_acceleration_x,right_linear_acceleration_y,right_linear_acceleration_z,pelvis_angular_velocity_x,pelvis_angular_velocity_y,pelvis_angular_velocity_z,pelvis_linear_acceleration_x,pelvis_linear_acceleration_y,pelvis_linear_acceleration_z,label
0.01,0.0852410370375219,0.0008558857433669,-0.0080446181053885,9.44151247753518,-0.597908565777512,-2.0541934688429,0.0452269539918918,-0.0091381378725884,-0.0067399615745444,9.35987475489001,0.759312642044349,-2.2506158240443,-0.0253830756039663,-0.007229121477248,-0.0047192948442594,9.92098148056684,1.10601945366576,-0.286243175793765,STAIR_UP
0.02,0.105124858292254,0.0056722730302373,-0.0087905773510561,9.60081922911774,-0.452653527604937,-2.01457149076734,0.0260325524320321,-0.0153759184341952,-0.0103775125733723,9.436170641595,0.749971006397812,-2.25216454264866,-0.0281611014658461,0.0047366165652385,0.0038025545514454,9.90389003897115,1.07245524333973,-0.317015666500488,STAIR_UP
0.03,0.0979108712037268,0.0095938191310566,-0.0134868513459249,9.68482480964951,-0.41326976856077,-1.95619972699156,0.0130785327206457,-0.0125234163085297,-0.0115930636416324,9.5784886916604,0.64559439844875,-2.28190759181151,-0.0384624425533632,0.0215871939887146,0.010650614836154,9.81317356592184,0.96188930928583,-0.338164615261789,STAIR_UP
0.04,0.0740701101612109,0.0166141003411537,-0.0124863253314753,9.67318137222517,-0.355175368803141,-1.95757732040121,0.0112233407694762,-0.0086492999831478,-0.0100048025567602,9.43831393638688,0.522787865572027,-2.48808611606273,-0.0404679016284536,0.0334777865619259,0.008597832147109,9.81268281469974,0.852305822927776,-0.408931505765999,STAIR_UP
0.05,0.040050676115277,0.0186038816822367,-0.0192311946693005,9.64332693201216,-0.453196081790641,-1.96677795914395,0.0171541308039749,-0.0184872313145952,-0.0055333568666456,9.46764035658998,0.320491773302668,-2.53578104463683,-0.0107218046598665,0.0410819509041427,0.0021999875661304,9.82483059500933,0.826866166214334,-0.384474144951007,STAIR_UP
0.06,0.0357020497795731,0.0240894441980346,-0.0184816216754737,9.64960502312598,-0.516661722366297,-2.05242426834999,0.0210388554861347,-0.039325932211362,-0.0218827222684488,9.46104527551552,0.0830571364566044,-2.63222282734827,0.0256255236931256,0.0419821265782658,-0.006824709296172,9.77965543361213,0.763557118261555,-0.286569839801775,STAIR_UP
0.07,0.0592744929612966,0.0210600764153641,-0.0223470322169097,9.52002382048207,-0.642590798893396,-2.01957437265264,0.0306955183967151,-0.0646084184182389,-0.0324999866410668,9.43825899946227,0.101423651270831,-2.65867664072547,0.0571412439736079,0.0321564417871205,-0.0154825986180456,9.80696886204208,0.672687924872753,-0.23694689228147,STAIR_UP
0.08,0.0855265813890837,-0.002061121068149,-0.0218429002279567,9.52392585181863,-0.634932585693894,-2.09102306641149,0.027600811324867,-0.0667198613934697,-0.0337856541264903,9.45972837404232,0.295066270002424,-2.62477507562482,0.0862155853888016,0.035627754427458,-0.016277986934601,9.83249668856572,0.61161160506601,-0.295666590148106,STAIR_UP
0.09,0.108724753221959,-0.0144214588283152,-0.0242128870521587,9.52649664854229,-0.686788053174554,-2.12057990493509,0.0515827940586479,-0.0693943489882579,-0.0409701206989252,9.26089048126768,0.531480646152108,-2.53328438846745,0.115838432444986,0.0445164035296938,-0.0091833901537834,9.82060746635126,0.6375297460065,-0.31299969034678,STAIR_UP
0.1,0.125290055879492,-0.030862661043659,-0.0255134418979429,9.51353553939064,-0.667687065720054,-2.09618748541453,0.0673318358908702,-0.0801788467132581,-0.0479237834668581,9.29867849366642,0.606948098113167,-2.52470867065409,0.143154747266334,0.0639583095092275,-0.0034626680594494,9.85187604798901,0.742863135930635,-0.286181523916542,STAIR_UP
0.11,0.113656485076282,-0.0303518906628146,-0.0265606376619053,9.54649778820254,-0.530269998555501,-1.95298007587531,0.0634483652095315,-0.0538912456909012,-0.0434595662230249,9.39503035941993,0.642452841319937,-2.32713012594499,0.156671707781014,0.0884843002188647,0.0080765260878438,9.80481167424165,0.821492476483361,-0.18617595740258,STAIR_UP
0.12,0.102026265208132,-0.0283598650445844,-0.0280962951154989,9.61410730686338,-0.489014058443463,-2.0218344168913,0.0711632349295466,-0.0656060972916704,-0.0396820720696037,9.39434643146642,0.781188230352686,-2.28567723907138,0.158867646111406,0.0920132698945875,0.0202884414975107,9.79696781246099,0.912120973178556,-0.120878351923788,STAIR_UP
0.13,0.0996222758723601,-0.0167222317594381,-0.0281479835001847,9.57363533204319,-0.391319730402686,-2.1393135422248,0.0824369232453746,-0.0616633674183476,-0.0379637295782892,9.41576913542731,0.720222831838308,-2.3633093112848,0.156692122161457,0.0841117590716368,0.0208606685222723,9.63198979956037,0.970874370569889,-0.089995452313593,STAIR_UP
0.14,0.0902381346794618,-0.009602498581688,-0.0285593984097357,9.56321218179634,-0.162371087593248,-2.03834665898486,0.0754349013479053,-0.073509466656139,-0.0345042758383855,9.51420046696,0.721142909046427,-2.47126970826024,0.163004367148619,0.0746067540125515,0.0232346897923381,9.61493210701009,1.04858729014729,-0.0076111133746141,STAIR_UP
0.15,0.0768903191810872,-0.0281076290315195,-0.0229719228250971,9.51856410864882,-0.0774951682044136,-1.8464861163752,0.054049401308823,-0.0782776922539548,-0.0340028208486155,9.52114937214436,0.601460202499844,-2.4691766810671,0.168392792300661,0.0696475904754817,0.0199544746450918,9.53266451717211,1.08665748327036,-0.0791378872927475,STAIR_UP
0.16,0.0550453253943387,-0.0420565683319573,-0.0204148407407551,9.53057601624213,-0.0959907366574981,-1.87542875211428,0.0421557093367733,-0.05920663156059,-0.0312533438270762,9.60763196141355,0.556752269808979,-2.40589334934955,0.164911411980082,0.0770061411998776,0.0149364164674852,9.5482714959216,1.12805762449065,0.0251362897442896,STAIR_UP
0.17,0.0499453904277168,-0.0522514772126227,-0.0176241959806471,9.62212631276656,-0.151937969605113,-1.9541761610016,0.0306956960825203,-0.0446168089112975,-0.0316969701325754,9.50046594072091,0.65270886460266,-2.42794365079642,0.147344906507504,0.0846375209195784,0.009223099303694,9.57779331179768,1.13169888337809,0.0485481327316616,STAIR_UP
0.18,0.0418712393426457,-0.040376708836623,-0.0133238617726001,9.59054229782043,-0.308608354513584,-1.92467352859,0.0299110458790332,-0.0550870845559715,-0.0377417175419849,9.38947239430823,0.705959017685415,-2.31190372207927,0.122600483022954,0.0864330990343785,0.0016785879723332,9.57031419282237,1.21942921026716,0.0778471503415253,STAIR_UP
0.19,0.0318671099562231,-0.0331801296770826,-0.0087154756200929,9.59606869981532,-0.320803255652291,-1.82259219228495,0.0159988075299458,-0.0704973937115917,-0.0437180302856919,9.51485571236219,0.605305491063381,-2.38596782112887,0.0990850967487999,0.0786511452102111,0.0004827129718758,9.62568137702905,1.27074905504696,0.113548229606452,STAIR_UP
0.2,0.0360880748759578,-0.0159789990728154,-0.010374362652736,9.71684040425353,-0.376333579754129,-1.81601414762378,-0.0020003307271118,-0.0499342094874485,-0.0324987865702342,9.6256474234707,0.78450682051253,-2.51125211541677,0.0837527946582725,0.0814067487758337,-0.0030868022799113,9.71713377672355,1.26644365228318,0.0358701120558976,STAIR_UP
0.21,0.038756100778559,0.0058597176538967,-0.0132569256634639,9.71296422285871,-0.43519786925068,-1.93614138850373,-0.0069389776967158,-0.0210146010860414,-0.0209939246493888,9.53112745360358,1.0572159409943,-2.54943626753321,0.0653080306712232,0.0828264659973532,0.0030744587205294,9.80873291287162,1.26187334430406,-0.041235533707353,STAIR_UP
0.22,0.0432062770712089,0.015146644702545,-0.0189087903193378,9.62856210626135,-0.553939667820717,-1.93271685378406,-0.0232802893079347,-0.008662128478894,-0.0097584848743519,9.43041782786567,1.13696078753913,-2.5851018733034,0.0378073054738933,0.0860343769376996,0.0002722065040506,9.86518804150393,1.19814528809184,-0.110376262752003,STAIR_UP
0.23,0.0380400447513424,0.0025038324404321,-0.0234877234449965,9.48859825538413,-0.470498912596871,-1.78380809904419,-0.04501074932213,-0.020682438460645,-0.0065579972937806,9.388735974593,1.04092094683222,-2.47928968937989,0.0238611308213871,0.0833807244594734,0.0115775085692713,9.86675982734598,1.16538208627535,-0.028084496862382,STAIR_UP
0.24,0.0570840229530244,-0.0255801469083372,-0.0246427490848763,9.47960668400912,-0.404430885028439,-1.86133574266747,-0.101442805415376,-0.0370591521477318,-0.0014895672016459,9.37751205151507,0.885254678546153,-2.47910099871944,0.0011356146445532,0.0824219966914652,0.0174690962175223,9.78675208367872,1.14403335179721,0.0850845325552755,STAIR_UP
0.25,0.073747403180382,-0.0425147888840107,-0.0175128043236994,9.45122163210467,-0.307390529179722,-2.02091870757004,-0.144460164906637,-0.0475657545558406,0.0015562410568977,9.26902139374452,0.780420080140651,-2.62245370625596,-0.0140412904855129,0.0709218609144439,0.0244027516603082,9.73162405241845,1.09059407083215,0.0633678111167978,STAIR_UP
0.26,0.0696389054113308,-0.0528329176160553,-0.0099274022664522,9.51230575653922,-0.201433835778399,-2.00537910019804,-0.159822270766448,-0.0893059404386581,-0.0046682632113439,9.27452583619639,0.539710920589603,-2.87817044465329,-0.017357093107467,0.0647242924373135,0.0277404047142777,9.65233683215578,1.09071848902546,0.0324949240321236,STAIR_UP
0.27,0.0353471229719039,-0.043492613487197,-0.0042936531789709,9.46809368714348,-0.0339345036382328,-2.11221242199695,-0.162995574701456,-0.104016169131212,-0.0045546167448244,9.29256264701023,0.392140315490516,-2.91273984578133,-0.0166978857955006,0.0546280848561647,0.0291425336233208,9.5973356992123,1.03662238500379,0.009059133803131,STAIR_UP
0.28,0.0018928798642555,-0.0529850325441732,0.0041838578594613,9.5065429252051,0.058357466263054,-2.07466056849879,-0.139365856407792,-0.0812566447538674,-0.0098291070963891,9.27469583210683,0.534207479643906,-2.91189700969844,-0.0042656841548685,0.0420359890481832,0.0325765817980241,9.61021474065737,1.0316327877511,-0.107598655646346,STAIR_UP
0.29,-0.0252598691009786,-0.0480218056691244,-0.0016947392949264,9.58293310711013,0.0685371568174061,-1.86277441574813,-0.0943215679682435,-0.0640222036702008,-0.0036476689503374,9.23464275423675,0.666070546687347,-2.80834848167176,-0.00092158363129,0.0361887634795501,0.0298950472098841,9.6827987423956,1.00399351730678,-0.115537748752863,STAIR_UP
0.3,-0.0542374008061608,-0.0393677362435688,-0.0018452205506284,9.62258511035081,-0.0850756270218072,-1.70648243943011,-0.0392267158028044,-0.0515808671666163,-0.0238727417513562,9.36078636260547,0.598045416272585,-2.57770616575595,-0.0013907772703088,0.0383962282282702,0.0376744082786761,9.7626328026073,0.997940713708978,-0.0741251258188172,STAIR_UP
0.31,-0.0785490928884022,-0.030830951347808,-0.0111381440516904,9.63880385151236,-0.324367953976447,-1.70499903811149,-0.048395226490381,-0.0404655198518177,-0.0291848693001186,9.58488998435917,0.512201534385398,-2.43264728227749,0.0011978768303526,0.0405131258382032,0.0399558344178311,9.8381945304512,1.03786494376562,-0.0042189793247229,STAIR_UP
0.32,-0.127339115182837,-0.0063344077054469,-0.0173584576441948,9.64343446177046,-0.464859754620144,-1.73551979356015,-0.0536750396518346,-0.0313704043920743,-0.0266791654084308,9.56872434576814,0.581489430964504,-2.39764376832185,0.0022280244359204,0.0444948012776456,0.0379153703864262,9.85634897274529,1.06343653230382,-0.0035949527708501,STAIR_UP
0.33,-0.143312758274886,0.0144340939294894,-0.022583479418848,9.5950556370293,-0.468864434052526,-1.86932480105059,-0.0079128246884094,-0.0405321945243821,-0.025451243631134,9.49754516696453,0.532122925672675,-2.51035639991264,-0.0073099515026142,0.0534544613533998,0.0395754321594809,9.87340089000705,1.09379640281363,0.0319039952253583,STAIR_UP
0.34,-0.138496284421351,0.0315536328393546,-0.029268872489107,9.58566779994251,-0.496641889137893,-1.87109457282363,0.0113255629580957,-0.0376512850276366,-0.0223333220928788,9.51145786206684,0.540591761998933,-2.58118793624035,-0.0210746960779658,0.0664102777778558,0.0396107998747737,9.86411336494636,1.18771712691721,0.128616561278278,STAIR_UP
0.35,-0.132148536183402,0.0366460689771796,-0.0322712176863677,9.55977812509416,-0.583329480615891,-1.95147974732157,-0.003696509435678,-0.0401831225663867,-0.0201058839520103,9.44248202890588,0.475688989621556,-2.48195414111535,-0.0322177439404302,0.0644896549841985,0.0396994057079748,9.81125224351694,1.23318360384792,0.109239948775024,STAIR_UP
0.36,-0.110731993950257,0.0205793430324265,-0.026476095338848,9.4957824737693,-0.651650237596404,-1.9261749546987,-0.0104182862688409,-0.0539350641464552,-0.0306758616970206,9.44301525469043,0.49694149387778,-2.5019774142557,-0.0390389142691683,0.0543305941980651,0.0364300559065529,9.70193399962932,1.23247508021576,0.0938496225705859,STAIR_UP
0.37,-0.0836004137882672,0.0126624615682283,-0.0196446891700841,9.51336698094178,-0.529683384184131,-1.88913786698135,0.0029724768224974,-0.0591357080351493,-0.0450225227931547,9.54336665831301,0.584479112388552,-2.54784518804321,-0.0574997643909313,0.0444637325275242,0.041008884221759,9.60780662869591,1.13305572118854,0.178952041345081,STAIR_UP
0.38,-0.0728494233538254,0.0102884732848463,-0.0145264856716551,9.61322786870923,-0.497745167529707,-1.93058427374935,-0.0011080359475087,-0.0565903112323254,-0.0514089004860427,9.56100587910277,0.599801038104471,-2.42378202440403,-0.0758323905420526,0.0423962200347921,0.0399785588447975,9.60535077442587,1.06079550055925,0.106013919226232,STAIR_UP
0.39,-0.0790676615210216,0.0120270766729899,-0.0056008070493435,9.66800862671052,-0.49386092063164,-1.92739910219585,-0.0158576798833059,-0.0630649809592623,-0.0509611222250599,9.409374379829,0.562107915463881,-2.30678659535415,-0.0824503702724297,0.0540871591864129,0.0453761137670038,9.58790530264306,1.02724794789374,0.11487874387495,STAIR_UP
0.4,-0.0844867232090168,-0.0060364973894238,-0.0018136169570182,9.79030171912556,-0.429644157859034,-2.00636582881791,-0.0325612702521388,-0.0574144869418655,-0.0486720797242702,9.34728521824353,0.575098916872323,-2.27164467462627,-0.0880658327566729,0.0633841117098712,0.0501110915278893,9.68791359007993,1.03935714144615,0.0878397058076021,STAIR_UP
0.41,-0.077977121195126,-0.0250980225477438,-0.0034630999292104,9.84506864542944,-0.347720076856398,-2.06372513502127,-0.0640574117091495,-0.0819316366167479,-0.0568817757591594,9.28274354003357,0.459961541005968,-2.39182140568631,-0.081189024888581,0.0565348277426864,0.0511688674373029,9.74173475021413,1.04510071521816,-0.0618604084118381,STAIR_UP
0.42,-0.0867449400763504,-0.0727837676733363,-0.0056799895767487,9.7772091989268,-0.288588681617168,-2.07440042498595,-0.103501412941517,-0.081718178142427,-0.0555501040221703,9.27595063970347,0.365397104278592,-2.44523367228432,-0.0626979905290257,0.0380755152867182,0.0428535730461534,9.7614193017758,1.06529477441259,-0.0939875645587931,STAIR_UP
0.43,-0.108062339977868,-0.0946629147363175,-0.0219568298919679,9.65342159352447,-0.347727107734293,-2.00399375426687,-0.104736360327951,-0.0731063919800601,-0.0588660061869686,9.37587413572312,0.411994756748371,-2.58578701982206,-0.0403788635434825,0.0236249214359001,0.023441296141528,9.78098641863625,1.08685092294753,-0.12789514819053,STAIR_UP
0.44,-0.139617755748125,-0.105943718520571,-0.0280806372596369,9.43837962850999,-0.531315016582824,-2.02488375314705,-0.0716528795471632,-0.0401076250698341,-0.0633693757646859,9.46712773272293,0.436909290446372,-2.67536503304525,-0.0268979229018881,0.0038241273490157,0.0020513410344202,9.75900231451896,1.10268718774128,-0.0944449193460811,STAIR_UP
0.45,-0.154699994064419,-0.111464929903823,-0.0280341278828708,9.36019166977547,-0.761742800790322,-2.15245442055983,-0.0445817684578278,-0.0278875025697538,-0.0708708012740682,9.43069578360611,0.31117670572985,-2.57488069910663,-0.0117338610082334,-0.0100456076258712,-0.0206080506734154,9.74099181772385,1.07426967350123,-0.091281196783592,STAIR_UP
0.46,-0.172727488019173,-0.0925252179570472,-0.0189342883211275,9.39051064089622,-0.68949307056374,-2.19619416667233,0.0106013822382791,-0.0450038719448981,-0.0787483347290149,9.43667115531552,0.159793581495295,-2.53915443629477,0.0009413874218215,-0.0006801933378299,-0.0297193978756323,9.76285941928875,1.05970089177674,-0.123494202439364,STAIR_UP
0.47,-0.163489597578089,-0.0843634824023937,-0.0169548070670406,9.34137718605992,-0.620702795394385,-2.15997844369128,0.0377668670781695,-0.0410313217053891,-0.086499065095258,9.46317937291177,0.135183728845275,-2.54040273346786,0.0098611058334545,0.0061076323339274,-0.0319810299098537,9.74828855602876,1.12933022088899,-0.150169018845295,STAIR_UP
0.48,-0.17946293385323,-0.0947620871293712,-0.0118511098537326,9.40843846802174,-0.583432862350592,-1.99974452794148,0.0559512948257909,-0.0285593059198928,-0.0886988639521095,9.39176019418589,0.225433388664543,-2.60396827414381,0.0176548098219854,0.0187998444052525,-0.026453776478354,9.74071457846545,1.22032387219368,-0.126336783677643,STAIR_UP
0.49,-0.194506389507987,-0.097345233368049,-0.012745738539135,9.62939599788878,-0.495739060820566,-1.89480852775707,0.0711311536072747,-0.0404128924496146,-0.103679383194505,9.29037197901602,0.49094384273673,-2.72780455991208,0.0158399843734355,0.0277066822899197,-0.0165488771464108,9.78659616309748,1.2282669774979,-0.0012954815598167,STAIR_UP
0.5,-0.210531084103667,-0.0864047521835775,-0.0226968717110078,9.71193274833312,-0.46947986382984,-1.83394627625925,0.0769648532515812,-0.0440769265192032,-0.122862988856577,9.34738961569312,0.473498553230847,-2.75750729280683,-0.0165493905581044,0.0222910368894271,-0.0042746990850924,9.86263853260019,1.26773576280765,0.0337796723947069,STAIR_UP
0.51,-0.23538297751294,-0.0698702223162808,-0.037465543555342,9.67852814617216,-0.549190182885564,-1.79592990374297,0.0548955942781324,-0.0573259339529255,-0.140515980627112,9.22185713532402,0.460869007963967,-2.64932355260387,-0.0279330041478829,0.0168036307736704,0.0063612825922541,9.87487586364571,1.27085893157753,-0.0511227499019774,STAIR_UP
0.52,-0.244879713678338,-0.0601447789040366,-0.0549159828972828,9.59103838132174,-0.628792878024787,-1.75906641452277,0.0237495785260869,-0.0887796129542557,-0.149402196937414,9.16166340890759,0.497951200999334,-2.86110169561165,-0.0048891967054833,0.0033221263876931,0.0146347868631298,9.84155385776051,1.23460965379473,-0.185940801471085,STAIR_UP
0.53,-0.242325882828137,-0.0451112210656293,-0.0634992611486569,9.46649001160919,-0.571924422422153,-1.69869426985053,0.0392421484072896,-0.112265585493746,-0.164993803547441,9.07037177009271,0.323667428364088,-2.83627634758079,0.0441206900186713,0.0061195454296757,0.0217204002653221,9.7596405130669,1.2008662840997,-0.376350387929339,STAIR_UP
0.54,-0.217259046172804,-0.055013023250937,-0.0738441300272327,9.50083964403635,-0.60561313985106,-1.72522075288425,0.0687096854399263,-0.120782989502293,-0.176083094572635,9.12440818494459,0.112651310079616,-2.76799255356835,0.0771403097119881,0.0353975154786773,0.0153967783579762,9.72681908865577,1.13092215311043,-0.436927429842803,STAIR_UP
0.55,-0.191319003821096,-0.0614674471399594,-0.0887517756216979,9.51273267070118,-0.612789581156163,-1.75840602341599,0.102694244931512,-0.120217600145701,-0.185016703570275,9.24595528858455,0.144858985569434,-2.55641004200872,0.0896641999494985,0.0532185089414943,0.0162960881008557,9.67479425237328,1.11364373660641,-0.311496034181681,STAIR_UP
0.56,-0.180091822141234,-0.0498492249895897,-0.101330354460485,9.54413775047204,-0.533150756179882,-1.79663728567341,0.133390288036733,-0.108642835422016,-0.195149659774723,9.33418626151899,0.224916636056587,-2.32949962267953,0.10849750177359,0.0693387804837907,0.0140070258744794,9.67242774903228,1.12119954291854,-0.238303627651334,STAIR_UP
0.57,-0.199872953495816,-0.0527776757918566,-0.109263779463256,9.58152283816312,-0.634760553898104,-1.84028273493636,0.161574675446208,-0.0853437903356014,-0.200103419608034,9.40793554646913,0.280955098305159,-2.01836974311871,0.109576870709,0.0676533571917597,0.0112438644042956,9.61445739937693,1.15579319651713,-0.0483841229886225,STAIR_UP
0.58,-0.21555319413383,-0.0443859549378007,-0.116710065920462,9.48027237929977,-0.756852544055549,-1.95675620156591,0.177228063132895,-0.0560683526030371,-0.210523901792227,9.6530139400463,0.324388425794267,-1.67147524271493,0.0871204824042198,0.0503898713766584,0.0161792341172544,9.62809212121685,1.26255969297193,-0.0931622991036071,STAIR_UP
0.59,-0.2154352924109,-0.0489206165236078,-0.115299261813365,9.34384081726276,-0.794322952682837,-2.08022076653285,0.185824404893449,-0.0256049583068309,-0.217397888341463,9.78254907876824,0.393387777635567,-1.37920391394314,0.0996511255865617,0.0512175119250484,0.0148187314017014,9.56421535896134,1.36753101673456,-0.211655940176659,STAIR_UP
0.6,-0.182634989494486,-0.0545520267746659,-0.105815041440526,9.31626640160519,-0.99920145469717,-2.01749410944765,0.199341945189421,-0.0074325380988235,-0.22239322900306,9.89748772399858,0.439837407695746,-1.00170277742162,0.0993636751593053,0.0392709829598669,0.0118971749201683,9.58876529769151,1.52739976899856,-0.0907628817881396,STAIR_UP
0.61,-0.193086766383015,-0.0835449077356372,-0.101101211421114,9.38961907057629,-0.918110987851263,-2.01480445789533,0.224896873360037,0.009324661892835,-0.218764195832809,10.0708856289298,0.27088513702898,-0.647701410246474,0.097122006759847,0.0235209930897346,0.0215953537570864,9.59001454199588,1.66320083710737,-0.126127216225226,STAIR_UP
0.62,-0.182284236454416,-0.101676284171956,-0.0994094241109943,9.51495658866809,-0.714045349312138,-2.0947949675964,0.241882405793612,0.0604614230630744,-0.206081128984607,10.2628064364734,0.0564918313657842,-0.342974087275779,0.113675351001499,0.0430822474470331,0.0213167291994121,9.56234425908113,1.79382349868756,-0.179736085655963,STAIR_UP
0.63,-0.166636649809555,-0.11026932950051,-0.108247564839703,9.56535809639094,-0.78249509691084,-2.27206127911605,0.27049234034202,0.15721309451114,-0.190906724402957,10.5195248504384,-0.0896949544991692,-0.134272159404883,0.14184380594051,0.0742676859678981,0.0338686892840214,9.54678682383795,1.87693847866674,0.12473878425378,STAIR_UP
0.64,-0.177260661468017,-0.109467607490019,-0.112732081836584,9.50666533002653,-0.739672818890681,-2.24027777871956,0.301424514097794,0.291649345028874,-0.163366339790629,10.7732092983617,-0.165100378487733,0.0581134989271851,0.120557081938561,0.0794121793449263,0.0347510446728058,9.55079165867464,1.84221328092071,0.396278891320729,STAIR_UP
0.65,-0.189074594170785,-0.123795238501244,-0.118832234314721,9.50979171892589,-0.651198223862056,-2.14370774181664,0.337385725999098,0.438635736303065,-0.1383714719945,10.9462689781017,-0.206032546110985,0.377589719896864,0.0942056288988531,0.0874073562309602,0.027513425079387,9.53611172647824,1.80039856294484,0.337493954941379,STAIR_UP
0.66,-0.155403473621174,-0.106820672123667,-0.126362283835075,9.33170169573731,-0.738362125223414,-2.34671018815842,0.389547927088097,0.602966367391174,-0.112963240995831,11.1716393269296,-0.219497577114164,0.676991178903487,0.087173054519774,0.102887599671416,0.0115663923208929,9.46959221615176,1.74064751435188,0.367942583091234,STAIR_UP
0.67,-0.144797205778003,-0.163109536023431,-0.116314159799406,9.1696475541319,-0.679032599329161,-2.59566083225406,0.461288549518702,0.788419209204615,-0.0864501275211828,11.3879035251823,-0.283673774628944,0.941116417905626,0.0735385258817924,0.103173258758722,-0.0069952457878741,9.43987957189321,1.70442010276347,0.432722757563959,STAIR_UP
0.68,-0.155148478401299,-0.173519243240805,-0.109253303025044,9.18181714257513,-0.374865280198172,-2.88238026766321,0.53300993857113,0.976506390307389,-0.0545032557026753,11.5961179483624,-0.487864291271703,1.22081511087961,0.0533734760503658,0.110921691308855,-0.0252462192291426,9.42604234513741,1.6617200932032,0.34290580854023,STAIR_UP
0.69,-0.174438962788325,-0.222571633819977,-0.0966373749461348,9.1745360799863,-0.197026614672166,-3.14046811144576,0.56642804438436,1.17226174769449,-0.0148501967018705,11.5496866861654,-0.695285545219795,1.50451072031828,0.0388596832311511,0.139126293690405,-0.0522855290559245,9.43530784976571,1.70914396707094,0.260542113189815,STAIR_UP
0.7,-0.221011430145209,-0.259594333588374,-0.0703290159245065,9.4060123521106,0.149419079271269,-3.29141801716293,0.526010458542308,1.32796979252076,0.0220809308637408,11.5864539128909,-0.732554308817325,1.75373286465943,0.0167665069393563,0.165150982749813,-0.0776961992485914,9.58594582457308,1.72487179732328,0.455488571785587,STAIR_UP
0.71,-0.270577812227066,-0.2929914228437,-0.0591105527939883,9.55319775934531,0.108418756042093,-3.36485114984708,0.459760679187911,1.47139630942242,0.0607085352764125,12.1252014377313,-0.904689726318824,2.00984955210407,-0.0157254234633445,0.178495195357951,-0.120854510446966,9.79144997952155,1.68455245055981,0.612697518866518,STAIR_UP
0.72,-0.312110869841633,-0.325076471365704,-0.041865863459666,9.44524328029995,0.089539338846173,-3.35049397930353,0.441027757662769,1.68553474237553,0.121687222720138,13.4051601414055,-1.44057518098503,2.55909879620394,-0.0356958898317821,0.189067286224098,-0.151137368306844,10.1678207406476,1.60197161079192,0.57876735839968,STAIR_UP
0.73,-0.363419493631917,-0.352941516845834,-0.0334693867909643,9.20068064608481,0.204832276439649,-3.48261592935328,0.511386242014718,2.01907248334229,0.256668159977343,14.7434821027529,-2.08008564829593,3.21693277334729,-0.0544263816390153,0.177987281484576,-0.170801892250829,10.5273894555391,1.45699015891426,0.590266535327444,STAIR_UP
0.74,-0.404414637623196,-0.362968470336258,-0.034279900876741,8.98888575463519,0.0646759905093853,-3.6554447830042,0.718062990662763,2.36685598800985,0.379819359749673,15.8293020081869,-2.40587177368666,3.5479017407969,-0.0772107465179129,0.20833816703463,-0.177064600730273,10.7379614883166,1.54797749659864,0.613376123907551,STAIR_UP
0.75,-0.417999721399425,-0.346925127939197,-0.063609126233174,8.92293870811188,0.025104277289303,-3.45740649007271,0.97926940917677,2.70122476653221,0.401719033374591,16.6509843877515,-1.79774793032954,3.97035142307343,-0.09458218558531,0.254157540918986,-0.173618718848465,10.990421808505,1.82081442430207,0.495537334369261,STAIR_UP
0.76,-0.361951028601779,-0.307797398036479,-0.120394486643095,8.87420037111249,-0.0919751982526575,-3.2456032470096,1.16029797455588,3.01824687175854,0.314549816280038,16.7962666931141,-0.679091846391361,4.80942572175229,-0.111313001303296,0.332972813569043,-0.15283303593039,11.1276389085636,2.00499077112656,0.427108924274749,STAIR_UP
0.77,-0.238572524306359,-0.283704561180647,-0.163760569195946,8.91404887012937,-0.611897883422014,-2.94498724831083,1.3019040814402,3.22551718268973,0.181031783317319,17.572297983063,0.0938703171387883,5.00984474807846,-0.166492292427169,0.432635047654432,-0.116798670751832,10.9194986548908,1.85214899252597,0.605023231892951,STAIR_UP
0.78,-0.195655853370213,-0.248436608080387,-0.175740616240693,9.23898889913257,-1.24439511246319,-2.24591729915902,1.4161785744253,3.35426713059579,0.0806329264125428,18.5095281567215,0.56973566548092,4.68831897484809,-0.268274690277432,0.497174979235712,-0.0659616174272096,10.420991296945,1.47875732369254,0.747762510629285,STAIR_UP
0.79,-0.137522291373171,-0.203460411675849,-0.158250126044813,9.38820477067612,-1.41440633945973,-2.26328644920752,1.3496635641513,3.37041608428695,-0.0682699233485617,19.0154781201908,1.13236545840454,3.69052423483337,-0.3983487646183,0.542267937902436,-0.0110500215572905,9.91145155054106,0.959080630121446,0.629634549516364,STAIR_UP
0.8,0.0303228503626589,-0.155039549980169,-0.131380741527471,9.86491782228795,-0.987562972401881,-2.49736120289572,1.20420178114115,3.35904876682232,-0.142485486336239,18.8906103241444,0.813195612558614,2.67533480041441,-0.500343195856506,0.583552570349424,0.0247762843030282,9.61407192253909,0.339107698357613,0.625353667129227,STAIR_UP
0.81,0.210377156852862,-0.0892177876141963,-0.11089206459083,10.0421559939641,0.180423479927649,-2.14256771329,1.10605681248533,3.3886763145276,-0.161253845662052,17.3871070425799,0.476048743740406,1.23005096727775,-0.56083579214092,0.57279682343434,0.0446527776639518,9.43326741255265,-0.325047620983164,0.454453821852021,STAIR_UP
0.82,0.281274408125288,-0.0933938748851035,-0.121261544614964,9.8398884614319,1.40802732190966,-2.06874596042108,1.17612518225249,3.39820775051717,-0.179285644005178,15.7233377562927,0.782532900089106,-0.546644078368155,-0.560361249266102,0.544258972989134,0.0591244127639717,9.41053238545956,-0.936755885391973,0.0362908925456262,STAIR_UP
0.83,0.287331994854159,-0.130382880428375,-0.146022685372958,9.92646046205121,2.13205159303444,-1.96363829634931,1.43605140464406,3.40218308877447,-0.165051708508717,14.0682342119764,0.745799501686536,-1.70763330939145,-0.499640869830796,0.502292795372245,0.0696689041173441,9.50404021308326,-1.20949800881807,-0.053174315508454,STAIR_UP
0.84,0.339716927738037,-0.175359600404424,-0.15308409574298,10.0298992675279,2.44312607359573,-2.25114387251358,1.7508516028341,3.44363224826961,-0.0220544786054704,12.8738430966979,0.587921526464088,-2.35375337736919,-0.395755176031836,0.420050681973048,0.0826346013369535,9.94654044557386,-1.20285362614271,-0.0395778477508392,STAIR_UP
0.85,0.390913967404724,-0.216724716426619,-0.131495559854113,9.89177297406466,2.97115358882711,-2.26542743219931,1.96098458999063,3.47211765345697,0.1343620706842,12.4740935718299,1.87458758498107,-2.16806259851865,-0.308569680377905,0.318503836417028,0.103244210488201,10.3143704648773,-1.03201181632362,-0.0217624842186426,STAIR_UP
0.86,0.412249011915703,-0.259363956660186,-0.112231259570801,9.64433316864854,2.9919358218823,-2.11002880876766,1.91786878671215,3.48085359470567,0.283937943603902,12.5684663351632,3.44770428432362,-1.6151052888665,-0.247633300563455,0.220323003716111,0.147666114518283,10.5792558464498,-0.827198590121906,-0.112948985097906,STAIR_UP
0.87,0.448025265680355,-0.298568006294454,-0.0744288875609604,9.50315766531539,2.72835408090166,-1.95577422338581,1.64597683670097,3.54310089460287,0.350078487213547,12.3167058879149,3.74262945155711,-0.324154678355448,-0.189172734561519,0.156762418553296,0.212769642637655,10.5466242530385,-0.571013954891208,-0.284653160354519,STAIR_UP
0.88,0.447570946461223,-0.298455868151144,-0.0300990189063458,9.47377056894818,2.14876206763252,-1.71150204603781,1.13799902508763,3.62850060604004,0.299465520575002,11.9171692594649,3.37125374199475,1.09504487557582,-0.146074716967287,0.103901773114701,0.291044858376655,10.4505066358496,-0.275304769463618,-0.263879767658411,STAIR_UP
0.89,0.461133050767809,-0.298138088059432,0.0108543682419628,9.68165901621831,1.59771478734042,-1.6225818623854,0.580696773037969,3.66045804990082,0.158062770514107,10.8239886063084,2.88728661625232,1.92233561418342,-0.119203376956419,0.0669889057641009,0.362762839040595,10.3823535417783,-0.163925128324089,-0.190727448695167,STAIR_UP
0.9,0.491191630237258,-0.309784745336469,0.0466506931341388,9.72042905527575,1.27884126185912,-1.59776159699953,0.329422965187853,3.46917839770181,-0.048545795340313,10.8434579476513,2.18250484299512,1.9992316614002,-0.139000575140325,0.0392599686345033,0.418531073447306,10.2467222870563,-0.0606232904829479,-0.233121981041528,STAIR_UP
0.91,0.502935885169353,-0.310496130052216,0.0522917104386275,9.73025115926661,0.909498536090282,-1.55167362056974,0.267802364835565,3.22165870681357,-0.194228967586723,9.87311678807505,1.94074159682438,0.654213134091146,-0.16706495215398,0.0161097788482685,0.451718703784344,10.1370683257195,0.108249352236714,-0.177233441027612,STAIR_UP
0.92,0.509305385083412,-0.297071024979107,0.013654672203597,10.1542997634303,0.677006633540778,-1.6179112243573,0.214551552202539,3.01094872514479,-0.222626194257589,8.71968095388835,2.28127784706989,-0.826552601074464,-0.170276981616325,0.0090858762815051,0.457194088646869,9.88939694903992,0.224592421707186,-0.0108541528805313,STAIR_UP
0.93,0.507803716632361,-0.28358599928476,-0.0099778762426268,9.64016375921698,0.108450126774819,-1.83578419749167,0.194907853138417,2.93627766301372,-0.127209041998668,7.64110667293614,2.16274720656047,-0.487666003893848,-0.171960649117447,-0.0052133633129604,0.436152023532258,9.65845303619761,0.226197931630782,-0.0237604316806487,STAIR_UP
0.94,0.57117847641904,-0.29062637623376,-0.028323626714378,9.5169141430832,-0.713218080931164,-2.20168984014026,0.229720726645753,2.87005026891504,0.0276452437565907,6.86422712205292,1.67280038938892,0.603138203659931,-0.165323985220659,-0.0341764895043302,0.4002695165379,9.51279101852593,0.231280721341035,-0.360527626286506,STAIR_UP
0.95,0.648549536803929,-0.266675588965593,-0.0355790941198876,9.53658168260978,-0.712146165523052,-2.59301119526235,0.294108542114007,2.80348611036528,0.164388758554483,7.18979943756629,1.59371333068003,1.07100327938192,-0.147527209339653,-0.0334279871799341,0.360772642722546,9.34944032081814,0.116472878981604,-0.391643700282072,STAIR_UP
0.96,0.76387795854834,-0.277901543230311,-0.0194559952448697,9.15551126832786,-1.1535745044972,-2.73624789092806,0.325745070212406,2.66963209686366,0.221382273537799,6.77052999417067,1.64327170145132,1.16373808670442,-0.137582363291417,-0.0297300427509977,0.322035230921057,9.31653712200884,-0.0504808703335042,-0.0362120685820408,STAIR_UP
0.97,0.842074809907409,-0.310574202363141,0.0082223440644079,9.09733568210246,-0.974360313112925,-2.84573906518726,0.250123052181398,2.53030476775988,0.256206162083452,6.42499472120178,1.90117707662341,1.03095817302601,-0.152269295944026,-0.0434603365436756,0.292458950288941,9.39439578711307,-0.171029075782118,0.0125335860323874,STAIR_UP
0.98,0.927471363771202,-0.318794407731728,0.0457897181247126,9.08089029830146,-0.327894114909635,-3.23047589401845,0.0592201669156015,2.42504160387126,0.267365483623353,6.36513278081181,1.71087531818937,0.679986626867056,-0.170810640196818,-0.0483644297010312,0.267869428355263,9.34301054560757,-0.247856804106232,-0.0627551120214287,STAIR_UP
0.99,0.951241846663564,-0.365070872664834,0.0674379139764892,8.95337176604676,0.414560882727284,-3.14724442672683,-0.0936525305290764,2.262396218747,0.249405706495697,6.02966527813566,1.09093071761935,0.95162377764219,-0.180191114812899,-0.0259714099239451,0.244504903914645,9.4043615015522,-0.253013517153884,-0.183662812065027,STAIR_UP
1,0.934677688640485,-0.415851116495836,0.0813729059565656,9.02083284508393,1.22794135844572,-3.05775688084729,-0.0826361484815875,2.09113911803224,0.234792615892947,5.61081421419462,0.620421975006861,1.02320274947214,-0.190839412693795,0.0113214728016519,0.233820783861217,9.53219122946662,-0.196741295998412,-0.282468643162912,STAIR_UP
1.01,0.871805844431928,-0.458981918294023,0.083320845424412,9.15261432321164,1.48395370942969,-3.3134632103373,0.0407943481803078,1.92124128232282,0.23067453928722,5.18483193976145,0.461483944771409,1.01070285463262,-0.202258965159284,0.0261493764639038,0.219262886254756,9.59830347712073,-0.158281707425963,-0.261639423266784,STAIR_UP
1.02,0.77433622555935,-0.466158164095861,0.101861252462964,9.35235885234871,1.44491661569902,-3.44214739617645,0.175329903102977,1.77242408730983,0.226164347005604,4.80921275406946,0.6100739192532,1.08838132035917,-0.219693830707279,0.0493352896485338,0.203115856807567,9.52708645225265,-0.106791152927182,-0.0805611152215162,STAIR_UP
1.03,0.660307876201586,-0.457723123606492,0.132811014089321,9.57812178025553,1.34054196601753,-3.42073655477073,0.301719917993673,1.61999604173928,0.252978241093372,4.60878048912236,0.655533107217671,1.01386789281845,-0.2265408138165,0.0819997638780345,0.192665289258413,9.57495219484214,-0.200583708495295,-0.132655287663678,STAIR_UP
1.04,0.562260002630664,-0.415770113450561,0.150708786175758,9.58411328239381,0.939902549528244,-3.33998601057658,0.396508524150246,1.47024099291733,0.257347764998272,4.52517258288393,0.685028808883218,1.12921133274279,-0.22516506695846,0.0930002366796472,0.179112060265948,9.61447941299294,-0.330097310743375,-0.285391149608773,STAIR_UP
1.05,0.480725330104084,-0.394792242843057,0.172009161466684,9.44500803174626,0.295053916523107,-3.18103399564071,0.460333917733943,1.29211893764629,0.234781651329745,4.18347928448765,0.641688876151976,1.33496765061509,-0.243096129555811,0.119232289409636,0.165282700169743,9.73505105182047,-0.470280212500567,-0.0782729908022172,STAIR_UP
1.06,0.401244525333613,-0.385629212132921,0.197317977370556,9.37895988705042,0.0997052376540734,-3.29264862732295,0.580781499822875,1.1181294060968,0.209708306006832,3.57719367507248,0.408303544130239,1.41367328531214,-0.264138807510134,0.146473910240104,0.15126547123004,9.80369415982127,-0.701070508593526,0.0625871121003153,STAIR_UP
1.07,0.362945954771773,-0.409945714864477,0.218916699287586,9.26362497382746,0.0067701322852603,-3.6162539178547,0.709725962181048,0.950655589050182,0.181094838255274,3.09826292844005,0.519915377917748,1.54345811929355,-0.248822815983189,0.151747993651472,0.139456223401675,9.97703291160392,-0.793816799501017,-0.0381800873419823,STAIR_UP
1.08,0.353269058647929,-0.448421094969471,0.224491670824709,9.34982986294797,-0.254718414796217,-3.8275857607279,0.7265653376194,0.758931872642692,0.148791445694093,3.18962198932474,0.820025717554194,1.818526658168,-0.225353019368569,0.180172893559334,0.131024253224208,10.1147898926507,-0.860414651951605,-0.177810839785423,STAIR_UP
1.09,0.356689733096794,-0.469023298099896,0.243307437760087,9.4207356984274,-0.352227327051329,-3.88046315828457,0.645362797646539,0.520707250298517,0.108814041425966,3.48537291904409,1.24920788053051,2.24068150002324,-0.195975050731619,0.186301601314882,0.116238499896572,10.1768146654398,-0.835456630755066,0.157289103339105,STAIR_UP
1.1,0.355530685381285,-0.501182579834259,0.271316732847614,9.56782449966949,-0.401602288916009,-3.81288519654751,0.445741587722405,0.308062187130464,0.101385233057811,3.57405392935805,1.53428723495212,2.91332710013274,-0.175393181720142,0.191211564414647,0.107761211113952,10.2590278238977,-0.798552900832001,0.0595232568135678,STAIR_UP
1.11,0.345246318285715,-0.536071225788591,0.291263122414163,9.5538947718232,-0.243539654093324,-3.74418948576833,0.21116669393439,0.100822605337141,0.10883842929172,3.42446499088482,1.54228686634008,3.40300126707459,-0.13708998780933,0.189242579133761,0.0854642199219534,10.357935157878,-0.707016959727129,-0.091332650140739,STAIR_UP
1.12,0.349169569000907,-0.555624727752515,0.304608836122452,9.68842638334069,-0.0777099002314152,-3.73034010140562,0.0497075943740296,-0.0599357015322674,0.155899389985583,3.24566387918323,1.39288221127162,3.75979279334658,-0.10184141651473,0.194122350675359,0.060395834681267,10.3144516268254,-0.61985061236015,-0.13626847022198,STAIR_UP
1.13,0.34562228045552,-0.548019736304915,0.299433241217341,10.0126856545308,-0.011611873798841,-3.90116799189244,0.0097800925562665,-0.227900325804297,0.226214056013487,3.13043044294476,1.11387196191394,3.72372254429413,-0.0575104233621195,0.190664127764902,0.0314074492362226,10.2679583581138,-0.547326318117047,-0.232448248985907,STAIR_UP
1.14,0.316078778892344,-0.486337534061516,0.28942344857555,10.5827296369939,0.0233783129187889,-3.81037152252564,0.0218563301197835,-0.434816257679802,0.293589865891157,3.20698639021,0.783871103282037,3.60057629407603,-0.0238267982203925,0.185937593724518,0.0070981384368241,10.3869296247889,-0.548370942533912,-0.198340202170462,STAIR_UP
1.15,0.253172866115827,-0.425939866169293,0.288359090142119,11.0118566109764,-0.0601476127898595,-3.27196829312292,0.0387309725924624,-0.627172869288682,0.368976412286183,3.47834228607321,0.653782743959662,3.57926591938446,0.0129931349200422,0.17412198661257,-0.0108369388393155,10.635567268979,-0.548308746817413,-0.391909930519987,STAIR_UP
1.16,0.184109628069416,-0.384741393370267,0.293443626717692,11.264136873429,0.0015343259685967,-2.83653750442494,0.0212900465635842,-0.820352930902411,0.438161376175058,4.04980378432145,0.876196944901702,3.3476789351794,0.0345440745883489,0.157224442776866,-0.020469442996016,11.1131728464596,-0.582838582630495,-0.484065883878146,STAIR_UP
1.17,0.153555297290275,-0.355817831925085,0.298401437690189,11.3400114869648,0.109696632313172,-2.6524056604665,-0.0066938007372663,-0.97937392716087,0.507882804762975,4.88503702103053,1.22006129678699,3.3381971236388,0.0370981378279777,0.150319231713066,-0.0263349127936791,11.6230010124594,-0.617349609332981,-0.589109447350996,STAIR_UP
1.18,0.168857191044256,-0.351199162647233,0.317523005287522,11.4680361280526,0.155588866292516,-2.6558498425299,-0.0855906205162907,-1.10370784261169,0.561568228825538,5.53750419196691,1.57020499485171,3.71197644647762,0.0150496617432006,0.17750172868663,-0.0297479117496042,11.9827530645161,-0.678264650150847,-0.465333339081505,STAIR_UP
1.19,0.203571438507532,-0.336715477413055,0.34713964444903,11.8844921079,0.3155071751487,-2.79476591980149,-0.166846437793133,-1.27513374076341,0.597907388798656,6.16200647718602,1.66566392339088,3.99408555890783,-0.0060953488703749,0.212408563221688,-0.0347691119988271,12.2586331009171,-0.764823811024295,-0.311339658458328,STAIR_UP
1.2,0.190484157715096,-0.269575355714243,0.372668106524958,12.3374594489554,0.679968409230094,-2.84797694237901,-0.257773702221438,-1.40595751734673,0.625000415624698,6.78157067465235,1.8807175677356,4.36131875753818,-0.0273589872864687,0.246514696987213,-0.0376789354785693,12.5341254231101,-0.80846673462109,-0.154923024512566,STAIR_UP
1.21,0.139091607057923,-0.17202818471547,0.369173470779456,13.0286248567141,0.972023360088583,-2.75027770245288,-0.249660099596919,-1.40754980251914,0.6571442130569,7.16414238365584,2.61862948329098,6.17988581777653,-0.0150524701884797,0.285653166508439,-0.0339667640300055,12.8602424186226,-0.777528676967089,-0.147567616147686,STAIR_UP
1.22,0.0896384569903323,-0.0437508894353626,0.339071118173154,13.6887167209223,0.91403702447139,-2.58323052492175,-0.393084477032999,-1.36072103615753,0.71746513995674,7.39143502577533,3.36411031920579,8.00933379745324,0.0079510902861104,0.300791407122354,-0.032695452150392,13.0557980996753,-0.807875595380413,0.0078213422713377,STAIR_UP
1.23,0.131131386605936,0.0718566604667708,0.30008995204124,13.9878158352166,0.757077154550255,-2.45617721961615,-0.623987789466132,-1.40846068678891,0.723362494734315,10.0537782331673,4.9447837124222,8.95055618721613,-0.0086916623917198,0.330345186628416,-0.0547751686583796,13.1958200883066,-0.933642375633535,0.41050285103359,STAIR_UP
1.24,0.179258703988877,0.137965115940145,0.280443374042243,14.0544241693665,0.0661618018667358,-2.21710453688393,-0.641438040964157,-1.63229383938197,0.597711042454962,11.1059183209526,4.20694187935945,7.79061021465502,-0.0791463164289103,0.355966287409379,-0.0813663296361075,13.7063942476149,-0.781067592465168,1.13525189679287,STAIR_UP
1.25,0.206689165690178,0.18586490727986,0.285097591373112,14.4636967335708,-0.172998164406419,-1.91915313251102,-0.581985912409041,-2.15381623080539,0.470434477431965,12.2772324887635,3.6821843724729,5.61066807129432,-0.131941321923244,0.320573585675867,-0.0933965951910478,14.1993855463909,-0.490834197773348,1.34423778022971,STAIR_UP
1.26,0.243929563881703,0.282366650748112,0.292892007870509,14.9918081507805,-0.0524192859559859,-1.58950371341398,-1.01567643056141,-2.27612884155268,0.528822129560903,13.911659895371,3.61177142518325,5.17908903924149,-0.248936976227092,0.254424812931321,-0.0915230045441363,14.5660464790599,-0.27154837392122,1.32417482435393,STAIR_UP
1.27,0.258844458840539,0.43025213739288,0.266610867861194,15.1061524290988,0.345791908050988,-1.17114773945378,-1.22513465222502,-2.01132226708417,0.690307463424263,14.3145259149395,2.54958818167877,6.45151333531125,-0.447368939410801,0.175016931560789,-0.0981967381226126,14.7061730048193,-0.181024951698999,1.53006433773431,STAIR_UP
1.28,0.27608832041955,0.621554485847938,0.20833013720783,15.2738018393766,0.644898567595707,-0.125848771888554,-1.49028812752657,-2.2717329148912,0.756802517658272,13.0688803486487,2.19692468281089,6.76028731255486,-0.689898354390705,0.198105829221736,-0.12141933420804,14.5804632875304,-0.220288766401069,2.01190395498427,STAIR_UP
1.29,0.230233478123115,0.835684250073761,0.131693824377204,15.4879975083582,1.08257119542847,1.18715350916849,-1.35512703478999,-2.58014692743808,0.790980278282982,12.6412374311414,2.8735365552843,3.9572863297159,-0.722390059791507,0.177189093298124,-0.127825084592699,14.3042587389413,-0.0662533709930089,1.65369225630829,STAIR_UP
1.3,0.160026784600284,1.05912021547119,0.0193160786689479,15.3784597385169,1.60215192837731,2.41797708173532,-1.50961119276246,-2.55157295246704,0.878323794328415,11.3523925590565,2.18137753907204,1.07607466455335,-0.435483993251954,-0.0597025929198162,-0.0977113484851082,13.6674633495496,-0.181109221085179,1.5449183268436,STAIR_UP
1.31,0.114691011606843,1.29201776125819,-0.138947894772705,15.0724484594747,2.08391711191168,3.23410876513437,-1.70894215003114,-2.84275141838161,0.874763729475275,10.5258423112529,-2.91578767597585,1.70917166951283,0.0439750224730103,-0.29785768891709,-0.0348706610672122,13.0762814981665,-0.446160880438281,1.90665582098855,STAIR_UP
1.32,0.111163237494894,1.54791672881419,-0.334233807854037,14.3815060379664,2.23247596388036,3.93481738765829,-1.63770354203155,-2.93010904575511,0.715725059816292,11.0909731501815,-7.79377251561948,3.00783187916274,0.296466296959874,-0.422123606305859,0.0240319765022846,12.2395086315173,-0.661097497856987,2.17272362629456,STAIR_UP
1.33,0.145390796751352,1.79610264639668,-0.540127203644387,13.6513646415441,2.39917033015634,4.46300111843978,-1.18496706491775,-2.59977057660931,0.458948259141069,12.5749790555067,-8.3892972616852,1.01348237074359,0.241702872431171,-0.318931038160988,0.0816750667460154,10.8708648203474,-0.599035786334608,1.82652323737332,STAIR_UP
1.34,0.199034473612123,2.02349307761697,-0.673772968563326,13.3939652554539,2.37852921088554,4.71552306342071,-0.224058626757323,-2.31626518251222,0.27599079575366,12.887110878261,-7.24647022072513,1.73111159034756,0.315957466038032,-0.147755885011657,0.134602694073972,8.96864367569585,-0.476924378574801,2.9930130207337,STAIR_UP
1.35,0.154165547211941,2.25497077508542,-0.708288928023152,13.9537117111094,2.58642791812344,4.79942389867824,0.446269666908605,-2.21917253285341,0.0771732196319046,12.3655521854644,-4.02460027096883,0.506434145274758,0.323003636732713,-0.175352012997618,0.149418939738838,8.22671673212146,-0.349993769272407,3.10627248771595,STAIR_UP
1.36,0.0450593006444821,2.60311284850016,-0.710531623172029,15.2486749289578,3.69373234732328,5.31081634781396,0.668947368548187,-1.99064106960978,-0.0190767590817521,10.4763220548238,-1.5598312250096,1.62992320161126,0.200271178682198,-0.187120374912503,0.0978647701060412,7.52771676108854,-0.396694575043332,2.8152883416408,STAIR_UP
1.37,-0.185584742891365,2.95944299371477,-0.76357684974837,16.3161026213034,6.42144976745852,5.48237974849778,0.604342525447335,-1.82473130045026,-0.038256853094792,8.50400923941428,-0.794389544100037,2.57311104842617,0.112145335056049,-0.165183542433183,-0.0146825906322589,6.70149222778694,-0.609845657608387,3.05903267015072,STAIR_UP
1.38,-0.446732743270822,2.87521380268858,-0.866292027941429,15.7598143628366,8.89844082626439,2.74396101443767,0.365541035347947,-1.71572560705659,-0.0417154176670617,7.29756183393425,0.543191266247515,3.08251911066079,0.0670741728090983,-0.121738847543085,-0.143611546211994,6.16837441790458,-0.53463846432076,3.28267971570697,STAIR_UP
1.39,-0.617616426382364,2.42893155369484,-0.963732287946304,15.686686145932,9.59554377245885,-0.696316176738031,0.0817204955897274,-1.71587832911224,0.0044587225179314,7.11152949149635,1.31607701980723,3.36779860561145,0.102848134354065,-0.0824657499877043,-0.260858025077466,6.00223543472369,-0.0481929549211405,2.87735701898608,STAIR_UP
1.4,-1.04431738867682,2.30485696841047,-1.09095394116949,15.4391583795767,8.39264322008702,-3.05584796806231,-0.350434083215633,-1.72708179003826,0.051918125235704,7.66630889320985,1.64730041441401,2.7371402976417,0.190288315384092,-0.0269551271007304,-0.363008846920285,6.19311858444834,0.526806440701188,2.11980309002642,STAIR_UP
1.41,-2.01081173478301,2.45373461866538,-1.07026913839086,15.0616582156311,5.56954389414831,-4.72141190037272,-0.894750107730344,-1.7340580010138,0.132445752967459,8.40144469027921,1.25527140211211,1.72864847645015,0.290430902787943,0.0332487072615197,-0.418884521799311,6.57800431340826,1.10850024765271,1.58397414064787,STAIR_UP
1.42,-3.08155109019449,2.52680662052421,-0.96158226782967,15.5569411997824,2.7675007963112,-4.59488383570446,-1.37123067178247,-1.83414073804758,0.219895134923959,8.64756834630628,0.023618418573098,1.11104979259231,0.382610138109259,0.0800864815597458,-0.438978344029955,7.0669195875536,1.49904545359295,1.51198585564928,STAIR_UP
1.43,-3.50469566270304,2.98574140021882,-1.03312684428638,15.7494696940925,1.11528014012075,-3.69653016412332,-1.67365779120018,-2.00971707942753,0.264571818719641,9.20446869576039,-1.45816869189018,0.453255391618744,0.464446549929327,0.125877955438308,-0.412765434593781,7.7361547359385,1.70167594714881,1.67135946817501,STAIR_UP
1.44,-3.25605098139785,3.22869280416097,-1.09794134614152,13.7382214463787,0.0354877042257775,-2.50025956550902,-1.80656804013941,-2.10566183745633,0.279379734944236,10.4959530846759,-2.59080117881468,-0.20513267921898,0.49713543628889,0.147192244475811,-0.365194119026157,8.45366143005285,1.87387032122077,1.91206756614213,STAIR_UP
1.45,-2.83841553021698,3.38095668556084,-1.09272701510573,12.7482210263698,-0.746938423062798,-1.26920172283622,-1.73890349824885,-2.17823983331002,0.261455190145566,11.678489709626,-3.17315237648293,-0.880637559816041,0.487718021574959,0.134874466130166,-0.299768593852542,9.12298924907001,2.16579186542203,2.03291837595592,STAIR_UP
1.46,-2.39676562629104,3.60072711800949,-1.02229047609597,12.4022882677648,-1.70036357312978,-1.9354817748128,-1.45630008162222,-2.20337788453999,0.170086214716724,12.6971097954382,-3.04493461518235,-1.20251412621752,0.459941511317683,0.089306479884798,-0.233288129778673,9.46348371772976,2.32012863681913,2.16383378782841,STAIR_UP
1.47,-2.08889768468247,3.59153584594219,-0.913983592971223,13.5641144826134,-2.53377063720425,-5.26814586167133,-1.10984209914482,-2.11691852890143,0.0843125650261095,12.1477335016759,-1.89857742038067,-1.02519481887765,0.383391437026543,0.0153767597742546,-0.185858959147416,9.46099581245703,2.32774202665996,2.07360955908688,STAIR_UP
1.48,-1.92717417882206,3.69440240231344,-0.826907818978341,14.6701327368884,-2.80381470252108,-7.62661049461243,-0.842373322391213,-1.96021924841655,0.0514597334503331,10.7374796508747,-0.587184454532341,-0.238828236195003,0.283550823260501,-0.045641785678318,-0.174650451463423,9.33715174804492,2.26641883028357,1.94814547231355,STAIR_UP
1.49,-1.89489715615189,3.93365924870821,-0.81258747872569,14.3622351383992,-3.61919215171654,-6.1574107266351,-0.823807984424355,-1.79718007585805,0.0022503548843552,8.93091359154635,1.17400334860069,0.523453574110383,0.194013885037792,-0.0662653668004888,-0.202440494550419,9.11613002384866,2.18392711427965,1.80829645796405,STAIR_UP
1.5,-1.77674995525174,4.12368025006328,-0.836216242761165,13.4153567842895,-4.17818054586865,-3.07779377810817,-1.00039062615853,-1.67535250811552,-0.0780964807881283,8.49265016871318,1.91124657458785,0.457259795256024,0.126671248112195,-0.0494691827671232,-0.250942874900749,8.78127965183397,1.96961725962547,1.66499150843188,STAIR_UP
1.51,-1.54682644847591,4.37098252040053,-0.903977635270595,12.5775643043323,-4.06644943222906,-1.70154031501319,-1.22095397161839,-1.6061123302799,-0.151774441102734,8.35181848482052,2.04189151782085,0.191961133213568,0.0803893115602216,-0.0386162818736355,-0.28886359278066,8.49058731931793,1.58504627361968,1.49404583052732,STAIR_UP
1.52,-1.28703427847112,4.43790683969101,-1.02349332265603,11.673807451526,-2.83581544148728,-1.39332563721852,-1.45825295456292,-1.55034703468273,-0.223869808696924,8.26251253314329,0.945285824448138,0.101097819500681,0.0363954403298199,-0.0217319505116656,-0.319064654236823,8.14562327234821,1.17432319287027,1.37233492148045,STAIR_UP
1.53,-0.86318682301946,4.04782388443855,-1.02590847604775,10.1345742949859,-1.94247761268813,-1.32753808032933,-1.64944898253239,-1.57172791915381,-0.249520222085141,8.41218514659956,-0.0625014747725076,-0.0984700250727844,-0.0002695525524404,0.0157328781123586,-0.332444873886488,7.93253705083236,0.783016526148305,1.2540819907062,STAIR_UP
1.54,-0.476677141580592,3.60005452937013,-0.909077243686466,10.4497750404415,-2.35498622780843,-2.40942933822026,-1.82786571651067,-1.64951639670361,-0.263480890579666,8.84202989391239,-1.49539630872566,-0.552338642771453,-0.055758561494733,0.0479307144301606,-0.33596485485991,7.89834460154031,0.606293922423212,1.0768930348761,STAIR_UP
1.55,-0.27505526597243,3.4253996088927,-0.838877504990375,10.2887532561997,-2.62235028606846,-2.41824772339643,-1.93099521780212,-1.74393604238888,-0.26056231290566,9.18655239850957,-2.57032892493713,-0.595914454434153,-0.0922017252526121,0.0627912598488489,-0.329005879255075,7.93920170492703,0.565433614777205,0.953824311712986,STAIR_UP
1.56,-0.105545992862276,3.28351277655972,-0.83708676895911,9.0651175134257,-2.6425876052486,-1.78788397516292,-1.96240737055722,-1.863146261453,-0.225932403817607,9.54535217582919,-3.115359842685,-1.29940635961286,-0.0606298178974515,0.0896819623671689,-0.32763769464939,7.98106971851722,0.767154081563309,0.847168673699595,STAIR_UP
1.57,0.0375698646455354,3.18865893284519,-0.815733908340512,7.50094415230706,-1.97494242779616,-1.28136231771823,-1.96294010884958,-1.92371540507312,-0.165755982703508,9.75500938046457,-3.5238783154735,-1.52344236278867,-0.0171914349027038,0.108825669304717,-0.307557351954654,7.87981965337021,1.07673456146123,0.623714979570136,STAIR_UP
1.58,0.0991784379519381,2.95612351391752,-0.771967196411905,6.4837496414795,0.102469572288421,-1.54665959537483,-1.92027441663212,-1.94786264597636,-0.105209207500164,9.73085124417801,-3.35828569276963,-1.22075012476723,0.0178959574477844,0.134346175465024,-0.283064967546284,7.80318620843082,1.45021316212609,0.32995056340205,STAIR_UP
1.59,-0.048426702704513,2.75328588669869,-0.718865238832172,6.80594335194492,0.946181861564251,-1.70531689846776,-1.89638565313502,-1.98245015572016,-0.039907532372456,9.70146259717834,-3.09315633645051,-0.794360584922558,0.0275867038789861,0.173579577475948,-0.265602290605433,7.63809124568556,1.72950576397801,0.329985169079066,STAIR_UP
1.6,-0.2714199870156,2.60844402227654,-0.665785751554314,7.20509677067916,0.499152362053908,-1.87566417290996,-1.94401901678204,-2.04147341086799,0.0131747159381383,8.9902720671128,-2.43799729876611,-0.757461034822752,-0.0072387864897865,0.21506290953727,-0.251473571586001,7.53721369867358,1.98342342620999,0.643305840654158,STAIR_UP
1.61,-0.491971884541442,2.5282740116947,-0.585550388325786,6.65202852979812,0.503897714266218,-1.72466093950415,-1.97712212566207,-2.10337896181272,0.0178272034741912,8.78425497632629,-2.56955704696922,-0.474135262173803,-0.0506000849666158,0.235821584201619,-0.247213083928574,7.60123835241112,2.02051577840218,0.653298752138945,STAIR_UP
1.62,-0.676132442275758,2.34971503739883,-0.557274110337165,5.89068120485138,0.0353676267600585,-1.63481513909959,-1.94751145345246,-2.04934611348932,-0.0070842465463911,8.83525009453723,-2.55644670081057,0.351377784978058,-0.126645629225097,0.219896465895741,-0.259249565264383,7.89304191702742,1.98653378527051,0.480314587322187,STAIR_UP
1.63,-0.837188158414218,2.17487853508551,-0.591576532899455,5.1496049937045,-0.565247435377128,-1.65179006880605,-1.94038874875689,-1.96040244065113,-0.0172442414884448,9.12850357851366,-2.18250947141454,0.32522359572909,-0.157443460687638,0.199659008862571,-0.284263856088023,8.18412348802299,1.87285139186516,0.489994296265117,STAIR_UP
1.64,-0.952730121201502,1.9773779797278,-0.617951985987249,4.73474068913106,-0.673712099145863,-1.92474429175866,-1.90242259695023,-1.80513803309765,-0.0475559546882629,9.38018940020846,-1.72907706804331,0.397087730809504,-0.120667483925398,0.185092719699396,-0.311285806891438,8.33152015586274,1.78558621661003,0.560608979518094,STAIR_UP
1.65,-1.04817031984622,1.7607767184066,-0.61511929596474,3.96304958409565,-0.718688258675204,-2.19979452411765,-1.85010110464703,-1.63301183113594,-0.110910132795337,9.85933625166348,-1.51080415925571,-0.0076010109479051,-0.0855113459617128,0.159991107987643,-0.344043583705168,8.5332918380043,1.55357819475738,0.509210594666262,STAIR_UP
1.66,-1.12304896414491,1.56084656818739,-0.556853470320978,3.14252332664929,-0.721233460248438,-2.03688027230057,-1.6940454319317,-1.45781642184559,-0.150988934491061,9.87114514011664,-1.29322794082674,-0.286434589172143,-0.073449766443394,0.166366396186833,-0.3847235781265,8.65284128963523,1.41191101355094,0.541452594979986,STAIR_UP
1.67,-1.14248711231317,1.33872470926259,-0.437151725227687,2.38458269507595,-1.51479153214827,-1.86631142954393,-1.51491152322882,-1.42030437253671,-0.220918472233114,9.68762762356209,-1.90384247753849,-0.484300087590662,-0.0868076255556797,0.151031827480738,-0.413902201140107,8.76109405305878,1.27905738184204,0.641300836441621,STAIR_UP
1.68,-1.03125192725758,1.16985761280301,-0.327587388318904,1.78075243399887,-2.2835856602318,-1.46403735884028,-1.30971321030004,-1.35927003609359,-0.269664092335135,9.87520962749935,-2.72168587792678,-0.956330343325711,-0.0729568554934187,0.111269473850995,-0.436390783532107,8.89415636901668,1.16526086122323,0.408005674654532,STAIR_UP
1.69,-0.866570557270312,1.00403976918439,-0.280098227177087,0.819983331600976,-1.60117530907131,-1.25435447932039,-1.08041739906524,-1.28524705066485,-0.265053699809432,10.1069167242409,-3.11034766533092,-1.43865239702981,-0.0662515157730581,0.0981900481936439,-0.446061363812651,9.21263509271647,1.11151972505421,0.131012343488949,STAIR_UP
1.7,-0.72501108568267,0.757809985130962,-0.283412596073195,0.689258334014872,-0.0404347234366432,-0.8857392506178,-0.82119290831021,-1.25164725815349,-0.265494370110967,10.6326762244416,-2.68837952796472,-1.55202678559127,-0.0435525573558282,0.13732496971268,-0.43512203571025,9.4217038909562,1.24929681610377,0.192136652946503,STAIR_UP
1.71,-0.586267405855251,0.383001400678516,-0.275197928316728,1.19016348700459,0.246155606300468,-0.106068586164631,-0.607903494464985,-1.20211410620758,-0.281143247893908,11.167841335566,-2.17217775280107,-1.69631966065893,0.0198937797877911,0.140001094302063,-0.400364329326882,9.60688196271665,1.43548597309104,0.35337612986714,STAIR_UP
1.72,-0.441255450151366,0.0269274876169238,-0.262601445251781,1.89512655635662,-0.19480627070205,0.716288320174353,-0.464064895454991,-1.09623037863634,-0.309648912147359,11.5061098380632,-1.70981335868182,-1.87838527730315,0.0714134573981694,0.137701441018603,-0.361649881892335,9.98902432444056,1.53502188251046,0.43325947454378,STAIR_UP
1.73,-0.318182754522483,-0.22535535511924,-0.237141956372667,2.08585992055387,-0.88274980067817,1.2246520213605,-0.399441135510277,-1.00342846684246,-0.332137013494503,11.9637038134244,-1.61060520164568,-2.16912678894551,0.100209512520188,0.0999179943552047,-0.333464524058518,10.3414379275446,1.65263643353914,0.434320891090886,STAIR_UP
1.74,-0.187814831134187,-0.446803222220851,-0.230310622670613,2.30937626961896,-1.06087596887834,1.16400800017107,-0.434296768280558,-0.914272704550864,-0.366512155208595,12.6381077348959,-1.56429122543001,-2.80863301970068,0.151450100137439,0.0742109746228671,-0.301899326901999,10.7938341128581,1.91516155241734,0.335170666068299,STAIR_UP
1.75,-0.108780627909422,-0.660665809252184,-0.219575939796573,2.75303943464298,-0.313457106648445,1.21516939561289,-0.351096505179784,-0.794889688743648,-0.38351373066565,13.004357782894,-1.55814522362005,-3.05565613019585,0.204105778327713,0.0299969737396608,-0.272685910410581,11.4334517028118,2.13786959944822,0.181005997464275,STAIR_UP
1.76,-0.0706673766267846,-0.952560323831925,-0.209929872778614,3.36171642519891,0.82862468560453,1.45403037207938,-0.0865728442717698,-0.692243644436297,-0.383600502460354,13.6483543421392,-1.78609800348812,-2.04096537601673,0.25910965164586,0.0230585861909959,-0.223236604901067,12.0049477401337,2.31793105581097,-0.0226592531283802,STAIR_UP
1.77,0.0975075904015853,-1.3403966014417,-0.187688566711241,3.85059827071049,1.45302764943796,1.73658478328476,0.119078584569716,-0.498580189134096,-0.367445696831333,14.9771759692926,-1.62227908108475,-0.477969378660159,0.314261022613375,0.0639188756214557,-0.166711988673521,12.5284758617238,2.59154118291537,-0.0310388215489186,STAIR_UP
1.78,0.343624863350309,-1.7537269070837,-0.147779948070944,4.3759666484869,1.98669290299801,1.57131905481161,0.290171069774177,-0.247522477438811,-0.36797102720729,15.9080169515275,-0.742135324066162,0.857300523989621,0.343330742113071,0.0980611092510205,-0.0917949118960086,13.1146286770229,2.91848888837623,0.199413635497169,STAIR_UP
1.79,0.530477880279194,-2.24261167166944,-0.095887559940482,4.89438158991142,2.61389314711162,0.421770137429171,0.429977822910624,-0.0720383212353685,-0.411344215051017,16.1102723488042,0.297411468923271,1.52055350145882,0.357980998670798,0.112470739937781,-0.004894191499467,13.5389460279272,3.16782403969208,0.370564124795189,STAIR_UP
1.8,0.527811315905735,-2.68764155929346,-0.0496487640573136,6.19204115477572,2.87007544054397,-0.22576743614355,0.47161280406517,0.0120190512262817,-0.471889725763185,15.5630088250211,1.0092182019503,1.70860303716249,0.340753271831897,0.130067351816694,0.0874805642624506,13.9775837954903,3.53438086552794,0.658242288893134,STAIR_UP
1.81,0.302321060019203,-2.87874741048062,-0.0281678024325747,7.72363578325155,2.09392300021023,-0.105273620071465,0.371726439454641,0.0279757815836682,-0.558920814782555,15.6809968400704,1.24610941263278,1.0777991028828,0.282961888007369,0.133089262317048,0.186091579425946,14.2839970792806,3.80463415691298,0.857909359326799,STAIR_UP
1.82,0.235379431594715,-2.19268929524127,-0.180475025325348,10.2700560972727,0.474669750432568,7.02775274416669,0.132558963503756,0.198393448245799,-0.572328546721129,17.0598456976313,0.54131605345841,-0.38875930272158,0.23202898733704,0.129985636774787,0.251235935432929,14.3771919090412,4.11158289473434,1.59495404515757,STAIR_UP
1.83,0.566847928947218,-2.08412751099772,-0.67546566847765,11.4473511322795,1.02282734174189,9.96367640068948,-0.143379252948253,0.4466422108098,-0.532668061470342,17.8734065857959,0.6778786111097,-1.19991624800576,0.169110580781571,0.114931691932399,0.261170744140361,14.0720672410105,4.57949422181148,3.05095495281859,STAIR_UP
1.84,0.585746398972195,-2.68163076296723,-0.95894909084046,18.0766498583425,2.88538782087998,3.0518304974364,-0.241900894385633,0.63183201690923,-0.434591796413498,15.8419057243349,1.94422079317071,-1.12156853934427,0.147317098990734,0.0805696429134801,0.203759614339878,14.9026109342341,4.18033116072655,4.31418664375228,STAIR_UP
1.85,0.864172754880323,-2.76055418383737,-0.992783875598726,22.3425725026704,-0.967849008042932,0.5457372829749,-0.194608752833296,0.64590241369645,-0.402311735276594,14.4891486896189,2.23428113998326,0.478047989886092,-0.0041371877610686,-0.111111912223212,0.0784110971265169,15.0794752513567,3.33095374950488,3.99766708292456,STAIR_UP
1.86,1.18829707580228,-2.91246045831625,-0.937189463007003,21.082850857097,1.42671850777656,3.10427107694926,-0.0920395548675389,0.670102767936687,-0.406131020875141,14.6134133793203,1.29248768550152,2.30330394129759,-0.0950142539546311,-0.3663681976943,-0.0599009732768829,14.6504973603159,2.34611313654061,1.87011301544627,STAIR_UP
1.87,1.08819503826525,-3.18413779289249,-0.504935684271567,14.637257965649,2.16651830389865,4.16050039366651,-0.0058881533779275,0.728482164875717,-0.326797078917203,14.7247401584015,0.397003261285355,2.90171960376561,-0.178265452997684,-0.503458264799283,-0.128922804236328,12.6823422790074,1.33865326561216,1.28454230810611,STAIR_UP
1.88,0.881302627954346,-3.09725959644812,0.0024268123614113,11.9233003444081,2.58110464918571,2.26638739297119,0.0312824088235153,0.86035151822543,-0.0700714378657368,14.4795709288867,-0.283019626556294,2.72620671207326,-0.0894188395044911,-0.438456273126914,-0.11399488176462,10.2029627468739,0.538712837692371,1.42520998766241,STAIR_UP
1.89,0.725985113681741,-2.75595724212861,0.395211439572286,10.9437714832167,-1.11402945606055,3.338374817545,-0.0245510415200337,1.00364555533808,0.222495606413902,13.7856960839612,-0.415091263882519,2.71342811812709,-0.0708393617788063,-0.329691225442353,-0.0546932101854391,8.09602495294087,0.231884683413043,2.74238458521292,STAIR_UP
1.9,0.503825879304958,-2.5244182319864,0.369732007646364,10.1493871757642,-0.33036938965346,4.00377069681091,-0.0651325449385686,1.3795053119627,0.375379923698126,13.8263515459902,-1.18663182444024,3.03665028188512,-0.113572842238011,-0.27114333592229,0.0458050413161085,7.05518699698331,0.509326004234962,3.28168392696339,STAIR_UP
1.91,0.803928233228369,-2.18460744130332,0.185453514703737,9.05383666543723,0.341046066004106,4.35896580872479,0.0894089778124164,2.14505273290622,0.364576510207236,14.672062785892,-3.26045889377745,4.53502451649335,-0.093280688998772,-0.14549553229642,0.183748913727112,6.56881032580168,1.20649533821799,4.01538596075094,STAIR_UP
1.92,0.703035875290508,-1.9630032125633,0.0964285903598858,8.54804987017857,1.32731476350967,3.75982652802693,0.648922192732281,3.07320219634074,0.264201592539199,16.9049759481146,-6.83152845752324,5.52217867125461,-0.103920582101462,0.0033414040264275,0.318609087250753,6.64649530871757,1.93079635131884,3.95867306779618,STAIR_UP
1.93,0.73397459969363,-1.84976489585611,0.168516561214843,9.4086456220012,1.38187920989719,2.06669228998469,1.5905292520015,3.88588359918371,0.256110559725969,20.3058207352795,-10.8797964556497,5.01973389581075,-0.103951157021015,0.110316664169134,0.447885819318696,7.22538194556357,2.45535483165276,3.87501534006172,STAIR_UP
1.94,0.772684803344332,-1.76496201630214,0.332378054708813,10.2271778548004,0.58488458099078,1.23970716670831,2.71090273814781,4.09107894439693,0.472944615798004,21.2641615995654,-13.101780121638,4.21283764648255,-0.212492025901387,0.124202597994615,0.539777277080552,8.0950868801488,2.45821880207808,3.43626384738591,STAIR_UP
1.95,0.980667120297993,-1.81300785553103,0.451539075559865,11.1330348415493,0.477643716310324,0.101363666659549,3.22165081334105,3.74697046324926,0.695537875994824,17.8312156004617,-10.6880479847418,4.24208710094637,-0.29068384725609,0.1013295820568,0.583901089481114,8.38527260405044,2.35613029943008,2.71332230040457,STAIR_UP
1.96,1.15698842559812,-1.89151754351924,0.505369912455576,11.5504064262725,1.31284128089741,-0.0991222351015463,3.09578861733397,3.13690486692117,0.675491118962007,12.2049311580589,-6.8284262591976,1.95362180036951,-0.31232824571322,0.066789014287544,0.580858630332054,8.25444996603557,2.22697525866514,2.28630816312468,STAIR_UP
1.97,1.27988074535864,-2.00298573751998,0.444908546122427,10.9237527360248,2.79979834464535,-0.344600921719189,2.87512942722347,2.44126044076569,0.313448977341574,8.16634732949916,-2.36769364803576,-1.96133920691436,-0.343021443520434,0.0728579563955409,0.525613431517343,7.80192823569802,1.96270739734199,2.16451722619457,STAIR_UP
1.98,1.27045522403297,-2.04118130980457,0.307882182226097,10.0776061100964,4.25655357686863,-0.412122043645271,2.49426257661317,2.09754499350423,-0.168854614589893,11.0043124364232,2.09702024658053,-4.42598483286908,-0.358462477274746,0.0855080090052691,0.436172020904338,7.3433735063791,1.49785671043004,1.75896015133561,STAIR_UP
1.99,1.18961925166767,-2.05162195921399,0.188291956630613,9.25183635331491,4.71437939208331,-0.189843610483079,2.01321255085649,2.7158717229649,-0.420221601927301,15.3503653947476,3.39389653387346,-6.43686893955552,-0.350122406564576,0.114442871842963,0.341048510774869,7.01560940821218,0.874963611664346,1.84521624551752,STAIR_UP
2,1.02813097130722,-2.03475770429161,0.126474846541952,8.91407456104929,4.53952351254691,-0.189193425167619,1.75497572103986,3.52864384645356,-0.492587680591582,15.6457007547244,2.33943635405672,-7.05822163905625,-0.345010428077191,0.0889245651203373,0.257232177665883,6.99481682658128,0.198397226731913,1.91637069230155,STAIR_UP
2.01,0.930555322840046,-1.9583719944227,0.119092161559225,8.93089525732034,4.16305020929284,0.136505042774099,1.67667538402151,3.78462439529897,-0.414437132274106,13.5607315126178,0.73417700858089,-5.34821109278111,-0.317714747399901,0.0505722121804936,0.207836142795239,7.32335020777483,-0.252262215620895,1.76452073178461,STAIR_UP
2.02,0.862242911373163,-1.91421289667871,0.178247949027945,9.42609879364411,3.09534403346075,0.592380355911613,1.89088788278044,3.72790740969638,-0.387555532175195,12.5674049573032,-0.307966201947107,-4.25437380846342,-0.265055482482954,0.0363011417494729,0.201202350175319,7.85604112362886,-0.560056190036406,1.58300909560519,STAIR_UP
2.03,0.859466701846067,-1.92240959458794,0.261725713619905,9.90715769639826,1.6505681837056,0.393552680174451,1.84075036005144,3.6250725748859,-0.405059101288148,12.674416315147,-0.404167320742625,-5.41819724736834,-0.197598584691616,0.0073468483166511,0.228083726450645,8.55766815121282,-0.569864143954761,1.44487210349097,STAIR_UP
2.04,0.895476644354691,-1.90461158266009,0.348436982342794,10.344617765507,0.336513779539374,0.325638016547067,1.34342312865924,3.90685549261923,-0.152724830209575,13.2637144590055,0.319896333675979,-7.75787198852969,-0.12714791737084,-0.0569087822135515,0.280115395362972,9.19579230055771,-0.441600474190849,1.1946538759606,STAIR_UP
2.05,0.985752383904882,-1.89784441393586,0.401423931323221,10.0868285566796,-0.367849120500006,0.339889369318101,1.12433142879155,4.43537934081965,0.276521579415206,12.8509866409184,2.16331538372557,-8.45169331689686,-0.0513424716138073,-0.0946787460293909,0.350144752435779,9.50457967253503,-0.29498932518726,1.19573704784624,STAIR_UP
2.06,1.07423452696221,-1.86707413245363,0.436783327604113,9.47385319801492,-0.379020997799733,0.149171652593077,1.15530358643244,4.81056296579145,0.540771439652503,11.7478610192876,2.45267914646903,-4.68046867147699,-0.0377535872236271,-0.0895102109479512,0.413597050281692,9.34837044630054,-0.2493698374844,1.47020483538905,STAIR_UP
2.07,1.20460037851161,-1.88972163266688,0.429323883479703,9.13198411806484,0.117829832492121,-0.286524447683806,0.895899180935714,4.73127191993502,0.526787452451523,8.94773559420025,2.35190636433469,-0.0598847111776862,-0.0887641385261646,-0.0798667352275267,0.450661571923443,8.7187466479939,-0.0744186711225199,1.6189581665107,STAIR_UP
2.08,1.35255941560526,-1.91023453626856,0.413862435768752,8.99508902223309,0.365274887970294,-0.428881411431108,0.721659639859394,3.96239987737169,0.350560640384679,6.53653129167592,3.49973633025045,2.21425053568246,-0.151465119809774,-0.0994930125622478,0.462464516966341,8.01747879720401,0.073702754906401,1.61727754486855,STAIR_UP
2.09,1.47035549140137,-1.91865236345664,0.404657406063527,8.5958877402402,0.833762734781761,-0.703680709945222,0.586808700038483,3.33006628794416,0.227642370322735,6.13142975224149,4.30855240563026,1.16191877929711,-0.182095194819654,-0.135993490295889,0.454801559865587,7.49172971497417,0.226559676138436,1.48730768014665,STAIR_UP
2.1,1.55859682292316,-1.86420402183138,0.394648178321491,8.45698066478117,1.17641994188681,-0.878983793209681,0.15313337501838,3.21942521800196,0.264875054255141,5.82170390552609,3.28752628329106,-1.44535696159604,-0.166403789599416,-0.172985640106236,0.440983944864931,7.20439252920033,0.445052968541098,1.25290339373252,STAIR_UP
2.11,1.64605567518308,-1.82215396896448,0.386906134062649,8.4596131862675,1.40021059711604,-0.844368334574994,-0.309804388370681,3.09717106288089,0.296143986044167,6.60489192242449,1.43521163639497,-2.94325074608704,-0.166734264500632,-0.184387255257487,0.421959285120525,7.09304361039313,0.701619671990289,0.993196277645692,STAIR_UP
2.12,1.63250724102562,-1.75900993029731,0.424769934117685,8.83411906323337,1.99510209356509,-1.28544399365829,-0.463048509088229,2.8277960292006,0.264206789978764,7.78024605048655,-0.0948286601088016,-2.83480030618654,-0.17829249572311,-0.150750404928634,0.398137965625407,7.17320112056187,0.8636835829692,0.650436412867035,STAIR_UP
2.13,1.60039363559515,-1.74615412761673,0.454300607880123,9.07543285812737,2.30940179319227,-1.2909590544619,-0.192450800651137,2.54718728958144,0.19733856449267,7.18178151986437,-0.887642994395823,-1.80501146762505,-0.182036242130829,-0.081951828662617,0.361005293622088,7.23190742531432,0.857495546958514,0.300822274209766,STAIR_UP
2.14,1.53745850207735,-1.79843105272476,0.481347948496054,9.0506733864035,2.9094855410967,-1.11436379058686,0.328482106886002,2.42269375928505,0.123128696384943,6.79446318734189,-1.29247432457644,-1.89741558492325,-0.205896785335047,-0.0266481241418122,0.325010191286071,7.27071462376957,0.765255179817547,0.343274748582937,STAIR_UP
2.15,1.43348470800357,-1.78896665170073,0.483521382233924,9.00628127360725,2.94406797735954,-1.21811035346956,0.662883850936941,2.34795296498167,0.0805581491853371,6.56121644212628,-1.47069559917242,-2.51941881674185,-0.264285217912591,0.0258003152538326,0.270667090889116,7.32960990698359,0.620156658040096,0.396139593715964,STAIR_UP
2.16,1.30785303005644,-1.74325385999704,0.496420273985938,9.42950440057853,2.3753331107417,-1.01436023614711,0.986844664544378,2.30455290726045,0.0431696417245812,5.94936949253856,-1.31353250225992,-2.72664464936938,-0.315678417635521,0.0768111540863656,0.230681631379597,7.45012337270393,0.31077328320431,0.471636116915147,STAIR_UP
2.17,1.09583390171929,-1.50703400642929,0.59137947695867,10.1252846639877,1.57009490570029,-0.143394099705295,1.2663673027254,2.17084270443888,0.0024467119200752,5.39336616258899,-0.621383769183439,-2.22443968758629,-0.374616503286661,0.134067419866557,0.207621206632215,7.7373499195506,-0.0564748926231259,0.703045227756579,STAIR_UP
2.18,1.05469262940379,-1.24673400436454,0.572530943553525,10.3550372848361,1.23022559747565,0.858094046510574,1.46610730431712,1.95200362541347,-0.0315550686819847,4.68269756939837,0.369943449275134,-1.46831677292665,-0.417863123728114,0.188979666145878,0.204243781379376,8.0881879615777,-0.275323440601377,0.818290036385416,STAIR_UP
2.19,1.0490781415754,-1.08972835941283,0.530441288984771,10.3529287765349,2.06161078523943,1.22501185322713,1.43438638984719,1.72641772230194,-0.0500206815188409,4.01952694485335,1.71329990453142,-0.765552628379071,-0.399946818318021,0.217645124743677,0.2216924596188,8.44915976623946,-0.441371794168742,0.918559602527742,STAIR_UP
2.2,1.07883351642131,-0.981476077924854,0.480861340504541,10.2384050436712,2.30225959498282,1.2390694640806,1.43438638984719,1.72641772230194,-0.0500206815188409,4.01952694485335,1.71329990453142,-0.765552628379071,-0.379275195456975,0.23354336051645,0.244309963394721,8.76629214493477,-0.4752623217364,1.25390584866903,STAIR_UP
2.21,1.06587234486608,-0.958724039822188,0.454075535934003,10.2029449685764,2.44102810505236,1.02844216274374,1.03904256296852,1.49925660626337,0.0227474069700725,3.21071000164306,1.54651752649106,-0.629681464518711,-0.345926469440823,0.215969096234781,0.267926344728253,9.08838689707766,-0.513228912427962,1.25856620264075,STAIR_UP
2.22,0.879381375981108,-0.936001290892073,0.456065985616305,10.6661371473754,2.23685189890196,0.23333924454524,0.813362474564959,1.29609159324455,0.125739354701245,2.55925453821016,0.0633380693864375,-0.968824431294287,-0.28000946920217,0.207783060054791,0.291659832960329,9.3749646423045,-0.517537822744031,1.11583738216293,STAIR_UP
2.23,0.640365763135311,-0.882548178730876,0.464606242456726,11.1330570857274,2.01338461745286,-0.640383454384048,0.835891493824587,1.03788836412281,0.149955388511805,2.2883083420584,-0.282280272916284,-0.935506160534735,-0.219066780358121,0.208128206625831,0.289607076940727,9.60732112632946,-0.529183624112811,1.22791285531607,STAIR_UP
2.24,0.490508886827076,-0.800743245872489,0.492661834609561,11.4857562008808,1.41266486468987,-1.00139635578769,0.722466251061783,0.739855565266623,0.178370434347031,2.26307407846296,-0.468199233542368,-0.400294880659386,-0.153335600598057,0.208054849436281,0.28231226725668,10.1015683612549,-0.454008182593091,0.947073939516478,STAIR_UP
2.25,0.364821437279854,-0.71013024373166,0.538936284684448,12.056119494774,0.842057257484877,-1.34616857465598,0.487865703937348,0.44472497722835,0.220858715326985,2.3306742594939,-0.510398675307647,0.137052708910183,-0.0714257125544198,0.199765496720818,0.27766486273668,10.7225698101035,-0.390902517671799,0.761663225911371,STAIR_UP
2.26,0.290004091047356,-0.618249237526884,0.567712236213469,12.5532725334933,1.40532577976022,-1.64847691086423,0.393505895446723,0.136288302967112,0.239585374231796,2.71544668109482,-0.547525307922601,0.285886694647033,-0.058542014481502,0.177822522135149,0.26882810147826,11.3928496868771,-0.434411682645853,0.870152613646405,STAIR_UP
2.27,0.242589948930248,-0.580316144621408,0.55680259866648,12.6004212656732,2.38754960654686,-2.5049254940616,0.500893532619162,-0.180749689479999,0.23720908842624,3.25616473392887,0.0550547093399958,0.326363692941612,-0.115573576836559,0.19286320228352,0.259920609124069,11.9978077328966,-0.506564255795446,1.05717618369284,STAIR_UP
2.28,0.201829580181454,-0.516972937081687,0.511094997844063,13.4559781843475,2.20849632497539,-3.4713217299958,0.574361427385797,-0.475453356028245,0.281196054658501,3.73992854709035,0.745586061883376,0.871425661881073,-0.149817317163812,0.174979065729767,0.249404227306875,12.307235419708,-0.435245728760492,0.817841971714442,STAIR_UP
2.29,0.147658479850861,-0.398986699685445,0.461393773113586,13.167270769299,1.67122211637454,-3.1971057793962,0.485237774519344,-0.731856841468984,0.351077453161416,4.18007874342773,1.04330531696163,1.97454131402592,-0.143610980440162,0.105790932916492,0.242090503101971,12.2661856395323,-0.411403424392602,0.772951298140065,STAIR_UP
2.3,0.114266622449943,-0.391134729554889,0.458752585622894,12.7307164364716,0.982804797102595,-2.72915181476073,0.217346004883344,-1.03972464913691,0.410050565136177,4.44008669137501,0.671192436730662,2.84342053795762,-0.158230376386559,0.0504615037364946,0.242085359419337,12.477365608976,-0.602888916132694,0.668083492919394,STAIR_UP
2.31,0.0681791562990069,-0.408967070246121,0.506508514696605,13.0763925782302,0.691245658091075,-1.97487806099639,-0.035155654200027,-1.454576103332,0.44969683213929,4.36245368806803,0.271306732488281,2.79417314009216,-0.181602763713026,0.0578603873361516,0.234993025305389,12.7403531849737,-0.79457290768896,0.604884025546653,STAIR_UP
2.32,0.0777876926533523,-0.399200787856963,0.569373543842298,13.9657843867766,0.485764317015488,-1.13239666523505,-0.035155654200027,-1.454576103332,0.44969683213929,4.36245368806803,0.271306732488281,2.79417314009216,-0.162882429946739,0.0620003925849275,0.227640460277411,12.9188666748884,-0.940081996614894,0.665723884561657,STAIR_UP
2.33,0.0915052597976595,-0.340825186287348,0.627650291309923,14.4082356640384,0.630061416470326,-0.274134006226414,-0.224556814678379,-1.97661102338575,0.461083515102859,4.62011872256693,-0.171967120038656,1.35182859757887,-0.118873368318009,0.0391775890366995,0.188295937123889,12.9139795093725,-1.09470014911075,0.673260402612711,STAIR_UP
2.34,0.0864617295328034,-0.283538075201759,0.659443927062481,14.9532799876509,0.915353049722842,0.296385454487195,-0.290314298039081,-2.41319342629396,0.464364357408726,5.13422467730643,0.0724203159702289,-0.0781073033345323,-0.0766764630514516,0.0480130879014868,0.117505977060044,12.8894342738988,-1.25472199277457,0.729264389084009,STAIR_UP
2.35,0.0331189864472718,-0.14150321301984,0.638313612075808,15.786254684269,1.47002659598119,0.323859375822233,-0.276550636066332,-2.66928879802499,0.459553235973746,6.33723171667109,1.68869592798422,0.312125928845854,-0.0138523484075141,0.0486540465936334,0.031764541882218,13.0517037708379,-1.25162669577339,0.889002946265703,STAIR_UP
2.36,0.0219557849186656,0.124375099157522,0.54283738959759,16.292540866737,1.79160097374386,0.124429199254265,-0.447407002685671,-2.33339047382,0.586908864991927,9.05056120080538,3.66330160390623,5.85191318989464,0.0451551696489519,0.0299172367821255,-0.0584026970620211,13.2942772418683,-1.48887246273007,1.24490202729389,STAIR_UP
2.37,0.107018623255325,0.430533045961339,0.413660226646073,16.2909762772475,1.35813149775942,0.244448005941349,-0.76252984606972,-2.43704593768427,0.833264761183053,10.8724039400989,3.50315604447472,6.42146629037606,0.0114962691031686,0.0343875731557539,-0.122949673998287,13.9164171809622,-1.72301481342745,2.42923097939117,STAIR_UP
2.38,0.181284057052305,0.724702573340787,0.297392650816463,16.1654744379952,0.443471371684827,0.823495002855875,-0.6808546135692,-2.82139174804951,1.10424566470631,17.0322384190844,0.771569745370735,2.58367170332456,-0.176524596911295,-0.0437902069388921,-0.12698822966924,14.9427310146562,-1.7380934827412,4.38273345921866,STAIR_UP
2.39,0.1220250798386,1.03718113204531,0.182416211130134,15.6780470152333,-0.0377026519277286,2.23925949396656,-0.900181893010648,-2.5555298937523,1.52233476760147,19.0140856374765,-0.407474167954825,3.14789972551869,-0.23226654605385,-0.170065797294267,-0.0635198967967492,15.4812281680501,-1.55754751650605,4.51436848377325,STAIR_UP
2.4,0.0427661352555471,1.30010302946496,0.0563437507064656,14.878951736565,0.232717649166403,3.89374396006673,-1.7216473073876,-2.61644069727759,1.61613794817656,20.0202612254692,-2.83588076582423,6.39539207465126,-0.0823016267037642,-0.337876024827203,0.0237379719611564,14.2244828510334,-1.19504269971483,3.70048518005371,STAIR_UP
2.41,0.0753527810831691,1.59067579620008,-0.123171723804978,14.0831893407448,1.05100513538019,5.34477735378198,-1.61803163620381,-2.6150287736966,1.46171253294708,17.2405117398935,-2.15378283835166,7.86037062521645,0.239938493920989,-0.583347011834642,0.0944816455449288,12.6598493696879,-0.548227764354919,2.70226171884024,STAIR_UP
2.42,0.285611602571464,1.88499848949939,-0.334888297874578,13.5048723542753,1.55454519317787,6.34505346173578,-0.856587083304713,-3.30477401955314,0.991947328624945,13.8210150373172,-6.18239557550169,4.90231558171079,0.410194392480532,-0.549307411062702,0.123138781185552,11.0073794904274,0.119186679926058,2.84808021400578,STAIR_UP
2.43,0.53979798115905,2.11255705785734,-0.478913996348069,13.5320001578679,1.46333320505768,6.73256139760091,-0.577182217958941,-3.376666370135,0.257214598799038,13.4433463509121,-5.07722273178352,0.616864635218234,0.30422214686034,-0.468790864594265,0.141974774622477,9.04159515016714,0.622094647153427,2.06951928944419,STAIR_UP
2.44,0.751192396331256,2.34230953894866,-0.530408680358361,14.1523346719118,1.46399466012529,7.18697611452623,-0.211042996082266,-2.95582027870497,-0.110428055866688,12.5709505685801,-4.41897283291122,-0.0522284531445701,0.330165601006115,-0.403880767645233,0.141555081807667,7.19722117957475,0.822215327336541,2.37632843710779,STAIR_UP
2.45,0.744387796350771,2.65103231605735,-0.573983321044392,15.8686222217479,3.16619249719016,8.21502887342886,0.344446640976859,-2.71965049825885,-0.217334733066778,8.77217792031762,-4.23120598426045,0.192456763739151,0.473535955783634,-0.384700988179118,0.111834518021364,6.1640461330191,0.717324828693454,3.20968744742264,STAIR_UP
2.46,0.391937257692633,2.75429796510716,-0.728466568775712,17.3156364966628,6.49519974310675,7.69654383765954,0.67357910674156,-2.42515040678127,-0.187171301225382,5.38321755255332,-0.791962537005948,-0.304133475992639,0.360984657591547,-0.315531175611493,0.0223666650834204,5.97005158490045,0.0968708807110507,2.75530706670193,STAIR_UP
2.47,-0.184718237756806,2.59157841629437,-0.980585366602488,17.9527652816947,9.96735208469223,6.17090007266865,0.672023938863734,-2.14226415748296,-0.0288135933025758,4.39605204375956,0.0405191871533812,0.798646178217644,0.23364715114512,-0.276046126185245,-0.101617802036343,5.87036384368672,-0.490779667905537,2.90144556037392,STAIR_UP
2.48,-0.577482047733089,2.38141698571817,-1.3121016596415,16.3315503027623,11.769714800985,2.53773696229921,0.356606107745318,-1.82978356770965,0.110665721169487,5.04969095266852,1.04200771019735,1.20593409804604,0.267062290160536,-0.232014256611184,-0.241135228542693,6.33175807402629,-0.570237077100572,3.20668870050178,STAIR_UP
2.49,-1.22275417242977,2.31181803275691,-1.58321528576617,13.9039166815347,11.456944796125,-2.15536287609179,0.0315082133300351,-1.59810432623652,0.201613851018145,6.30955831363625,1.8278481404592,2.30378620700309,0.37892152428433,-0.181445454963312,-0.39260662579974,7.10134684634341,-0.495611933840313,2.57554875712878,STAIR_UP
2.5,-2.43201033148767,2.15998396552481,-1.28437217602164,15.6917280434308,5.52978218415398,-7.00715246881105,-0.355778454360264,-1.57719464835897,0.184930865849664,8.21159401780691,2.12716788413919,2.54642005299953,0.540355453043359,-0.0897867676298408,-0.552834431512659,7.83109869549666,-0.394935420041998,1.85363483476625,STAIR_UP
2.51,-3.1174591339812,3.0931849387141,-0.944909397158312,14.9375394653336,0.327329841651495,-6.05922217395706,-0.718818889596525,-1.69837473926936,0.153723252348197,10.8037245067464,2.0280194591278,2.12439725318784,0.707345968703063,-0.0307982265526612,-0.660958104715628,8.30312465996912,-0.214156149175665,1.28617119131554,STAIR_UP
2.52,-3.1174591339812,3.0931849387141,-0.944909397158312,14.9375394653336,0.327329841651495,-6.05922217395706,-1.08776069663721,-1.92291908226506,0.126613201569,13.4321424968865,0.86089265798566,1.57122985496025,0.840335485878901,0.0190244958544101,-0.661961181793851,8.45202639755275,0.0752480687302495,1.03352707538463,STAIR_UP
2.53,-2.34827857747435,3.71138714325574,-0.791129449894596,12.8290584915859,1.03491825916963,-3.41886594306531,-1.27108765007833,-2.14661374213515,0.0970450980459684,14.2140236393608,-0.790234196884154,0.823959405981057,0.906446623724451,0.0699020225002372,-0.572914507428846,8.31891513418658,0.425739657113944,1.34649206891703,STAIR_UP
2.54,-1.67022685725551,3.63454995975665,-0.736183047857403,13.8260954139225,2.21283860130742,-1.80522842374413,-1.32875887926939,-2.24538773962535,0.080509653505807,12.7647819121299,-1.82125788494391,0.632520276265166,0.877228518372234,0.0844990803432883,-0.403417141421636,8.33232994831281,1.00049908966484,1.69682956448164,STAIR_UP
2.55,-1.34608615319307,3.27029457062566,-0.817980979923556,13.7338753531015,2.25385209136587,-2.47418803541777,-1.33260925780523,-2.20160515614783,0.161721635150425,10.5520227279543,-2.26413719762354,0.536538097782668,0.830033650307645,0.0457788390130313,-0.240107284578805,8.30968068527066,1.79684095472147,2.08257150863979,STAIR_UP
2.56,-1.33248727065284,2.94682295251046,-0.9322587761439,15.5770726065001,1.50330301654228,-5.28048521561091,-1.27304984844448,-2.10593638084961,0.246458666223499,9.21319899181755,-2.16688675324155,0.240804274351345,0.759581886838725,-0.0611506929726394,-0.140514086623539,8.18027287037356,2.57849685123495,2.22432775590979,STAIR_UP
2.57,-1.78021819078281,3.71914210097124,-0.995679780067798,17.045097094632,-0.295363110413238,-10.0758661269028,-1.19526617711085,-2.00275540862665,0.262871004710469,8.80586713814976,-2.80751758902153,-0.0084022444295452,0.687185184969688,-0.184006831505773,-0.126359304047167,8.14079184805893,3.15280680818686,1.8718755092772,STAIR_UP
2.58,-2.41980182071148,4.80959681877883,-1.02469113806301,15.180114489045,-1.90286020951174,-9.71906123588794,-1.11221942605713,-1.94475851515462,0.171280557869854,8.91219293674527,-3.0977006973726,-0.538984609422248,0.636895768462391,-0.224801184833337,-0.189666686398968,8.37603544181607,3.01828975492703,1.5009360185031,STAIR_UP
2.59,-2.69102568872346,5.04452782303855,-0.979157241611967,11.3659881263414,-2.96107776948324,-2.69990911950796,-1.04820766231677,-1.92610932841245,0.0180688988853033,9.3072535419301,-2.10158548686767,-1.04645713749776,0.569133491038759,-0.186811228506453,-0.273902475664157,8.84447869052491,2.33200028580708,0.966433158458448,STAIR_UP
2.6,-2.37775014590278,4.46452094978563,-0.87899663608906,8.8898211876291,-4.20362066541803,2.20503229334274,-0.979158611613188,-1.97936571490847,-0.174555711294599,9.72606775379948,-1.74290361584719,-1.05530884535504,0.535196173297033,-0.13056305894533,-0.318703929426304,9.26721963071943,1.47454488042147,0.667874388115791,STAIR_UP
2.61,-1.72962663281498,3.8411204701074,-0.733167306457524,8.36094913718903,-4.70383953324853,3.30509713456955,-0.887246066433443,-2.06047765037834,-0.32958902741163,9.89407674139082,-1.69142324872255,-1.09710859931815,0.487807699345181,-0.0886351787898604,-0.297027812493363,9.41343414425038,0.870192821985867,0.644186956525072,STAIR_UP
2.62,-1.35974851672687,3.49366630047801,-0.609771167150568,7.38126210042752,-4.19452247219531,0.744763981768551,-0.898252880181385,-2.04492658121186,-0.354918422408509,9.74691711676008,-1.44289945100687,-1.00159687762174,0.448522876104354,-0.0114690135173624,-0.223512011803404,9.18553483073355,0.773197188712916,0.494293058749011,STAIR_UP
2.63,-1.07131441400185,3.45046372828148,-0.477612511689797,8.23103774833082,-3.59215289014806,-2.78670213465524,-0.95692053634353,-1.97314402965343,-0.310747154707681,9.62094411394114,-0.61611123339489,-1.37015663296215,0.432301815545049,0.102324651165966,-0.138033320602824,8.68803755510191,0.869619374617709,0.551617570169165,STAIR_UP
2.64,-0.674503930754055,3.37750571180589,-0.4047677292026,9.07135868799149,-3.38096745060964,-3.54292994633414,-1.01238914171198,-1.89144773159078,-0.214742268498818,9.49463666666494,0.587229599104909,-1.14757311765535,0.390283361154396,0.159580524028867,-0.0873745438583466,8.20737213723093,1.26628064560024,0.875822618874257,STAIR_UP
2.65,-0.300723307315856,3.17116368450533,-0.497588924119333,9.47557472744151,-2.92300699630851,-1.86697583206392,-1.02018411019022,-1.8460727738605,-0.146409901268897,9.30462552375324,1.12999688058766,-0.939521321519781,0.356776918798951,0.170616056563647,-0.110714282665321,7.80671822746799,1.88924857666915,0.968691788689141,STAIR_UP
2.66,-0.324230554681241,2.98546224946635,-0.55903921380374,9.23579322842247,-1.61667351757141,-1.03823837478945,-1.1455388030753,-1.83867305475864,-0.133073486296577,9.16186550912626,1.10661227049837,-0.173185490652343,0.285083831755203,0.177425217932523,-0.189433348554057,7.61314725574343,2.39132362307657,0.843030337529279,STAIR_UP
2.67,-0.468172116386555,2.82267227538683,-0.52862840705191,7.89802841185689,-0.303178518561405,-1.53807011337466,-1.43086871766093,-1.83698265929646,-0.128454607525926,9.22674124530804,0.765949349945535,-0.0106649398129418,0.156475724637812,0.163704664053249,-0.292605474619072,7.38346002942221,2.74281586780452,0.927325997170729,STAIR_UP
2.68,-0.553141920426995,2.59776826889676,-0.44977377491112,6.70005107056279,0.521778202871556,-1.97604856985234,-1.74983302204814,-1.81237573982582,-0.13743438588743,9.41795421655193,0.523360627229008,0.175722622403295,0.0144665047118568,0.0981210133915818,-0.376515709209241,7.36437324015022,2.85670869038809,0.955918204691578,STAIR_UP
2.69,-0.634321674283733,2.43858545694505,-0.402134917469758,6.20842231665632,0.216947361315523,-2.39258225947071,-2.02441004401464,-1.7357778128286,-0.116655772069396,9.60206632877054,0.158678317464564,0.171091787886453,-0.121789935272964,0.0209578720426975,-0.439305876617478,7.84241647399412,2.83279084025501,0.747811943618463,STAIR_UP
2.7,-0.808162967046467,2.29941326431807,-0.330547388903615,5.6876513388259,-0.172834432768468,-2.74794103098352,-2.14446754212028,-1.68876874428463,-0.12144453710649,9.91627805876044,-0.2105852696292,0.154540721363959,-0.227699455309713,0.0100246079153837,-0.47041984321489,8.51474264433288,2.63045169791569,0.473653163041009,STAIR_UP
2.71,-1.00885553151664,2.07363776489657,-0.296950843927488,4.65248726031564,-0.428194397956511,-2.61377349769149,-2.1745352502829,-1.60388384626968,-0.0690726187710991,10.6990026284039,-0.902014643293434,-0.355107685574457,-0.313516492885992,-0.0005879161301198,-0.486181355536371,8.97136140540842,2.29817688860988,0.501659845975014,STAIR_UP
2.72,-1.10247199747168,1.83508470851969,-0.249021525553988,3.67730675624805,-0.260710399871209,-2.44992285992793,-2.20452333305289,-1.43924909776319,0.0027443079202594,10.2721666768076,-1.3016056543037,-0.407195333864741,-0.375712646294447,0.0004976095933733,-0.493733655064089,9.21740530080377,1.98270234174191,0.598423326420367,STAIR_UP
2.73,-1.10773478874301,1.63589746300343,-0.204446158849278,1.81768638008456,-0.751188757881475,-2.40507008765882,-2.23495539940663,-1.4233192737154,-0.0186909477223188,9.71063794084422,-1.55729891738169,-0.70005270105384,-0.413083708870109,-0.0191493659259206,-0.513107790526715,9.20819698797173,1.64631860233413,0.741937580247333,STAIR_UP
2.74,-1.03159695921921,1.40867876024426,-0.236923036430428,0.608890197488297,-0.887002858234402,-2.34441948774887,-2.20035063154734,-1.44812192361583,-0.0969185804604952,10.291908081522,-2.13675206600174,-1.29778647712924,-0.413913095397908,-0.0565452890925043,-0.530160733576954,9.31499564424317,1.35811330946938,0.646089749382279,STAIR_UP
2.75,-0.971582904820077,1.05124625121461,-0.30598507292137,0.0674062080663307,-0.0545192315010511,-2.84720996186155,-2.03895314642739,-1.4160344436111,-0.16791479015128,10.5187066474814,-3.26470711438128,-1.59697402703377,-0.382145074109692,-0.0412917681060481,-0.5509509975802,9.67405398569464,1.18082463548375,0.239947518621768,STAIR_UP
2.76,-0.931696729796651,0.683327269569994,-0.310550942874649,0.227305908727979,0.0292040262452538,-2.58616428712243,-1.8548555519211,-1.41214383998423,-0.264700357878136,10.5775784426976,-3.61914210584809,-2.22288864443394,-0.315335914489082,0.0181716629435595,-0.554044847801346,10.0139405412322,1.08885213771411,0.122254224236482,STAIR_UP
2.77,-0.714831613419525,0.449938233493373,-0.274334947720293,0.898661428505916,0.270663601910039,-1.40846255068138,-1.59263133118842,-1.34009013928931,-0.292998714270311,10.408060124493,-3.13500746073028,-2.25203559691529,-0.207125968049087,0.0654308395423387,-0.536524862372175,10.2603650646477,1.09202333377599,-0.228299758423354,STAIR_UP
2.78,-0.474993247053938,0.236554629676122,-0.224171167689824,1.03612577244365,0.253052598589707,-0.113045173157549,-1.27124982181632,-1.30096379871484,-0.348250364506907,9.70704642812543,-2.98869823698377,-1.82405175149878,-0.0927039789079465,0.132824738858842,-0.489865820954978,10.3285314040538,0.984079235480159,-0.187116862906463,STAIR_UP
2.79,-0.36964713673126,-0.0110284205929992,-0.208096200239141,0.914577699969104,0.592054785845144,0.614525161478252,-0.98727041706603,-1.28346863835596,-0.446395393152755,9.6754307319381,-3.00232033291842,-1.58968667755506,-0.0099249097615713,0.155076266823799,-0.438017891254325,9.96430658774494,0.957749859013774,-0.153883584370356,STAIR_UP
2.8,-0.313765117763686,-0.27097962638851,-0.242798430064542,0.801393032728119,0.789689784496704,1.07012493985162,-0.825194815082499,-1.25369769342533,-0.511053137192407,10.1213019364907,-2.77931202883727,-1.76643984419619,0.0625269365755102,0.149340359443623,-0.363014268255028,9.53999057378515,0.995018957192008,-0.174895873001216,STAIR_UP
2.81,-0.327365224706846,-0.603092150165956,-0.288870251786928,0.849198958453749,0.582043359086345,1.10479111552594,-0.665641828193454,-1.220215660369,-0.556943493247879,10.7930383533694,-2.30968119015635,-1.78381331804216,0.121154599197669,0.110428729332649,-0.290309885960838,9.20176874031873,0.957068022232528,0.0152782162378906,STAIR_UP
2.82,-0.380663603688722,-0.93505223940326,-0.291649685220969,1.08627978609991,0.819177833965808,0.889508216413171,-0.473027775362885,-1.12276262909029,-0.557771988610766,12.0460306458712,-1.91563938532409,-2.12502984546128,0.157874692871893,0.0459406814814455,-0.235394179017591,9.19127596536068,1.20047703401338,-0.162042362228345,STAIR_UP
2.83,-0.320507401557618,-1.22718216494935,-0.298568125284844,1.58302542043066,0.8264545393771,0.913099654243496,-0.222675090799325,-0.951310943272896,-0.524966081665417,13.0853386507709,-1.52755938292625,-2.39214441557084,0.187914001062337,0.0000306108016558,-0.193960707733603,9.6159682686491,1.59309532898441,-0.392485917686081,STAIR_UP
2.84,-0.113526272309599,-1.53632241205293,-0.302870859231842,2.35196229426526,0.693272978181834,1.2192769232214,0.0835554745740451,-0.724985539025705,-0.494517473577494,13.5373233345286,-1.14403594941509,-2.25540308788827,0.221558587677919,-0.0626639455873159,-0.16052185159187,10.2801343215309,2.08840082864639,-0.564824863764623,STAIR_UP
2.85,0.0840648830310306,-1.95539256357368,-0.258930904914161,3.00179611776888,0.616822094142979,1.12454706712062,0.353580541585243,-0.566772917690525,-0.491835117139591,14.1022736507769,-0.48974903932688,-1.73916611348318,0.251284514653213,-0.104008431930449,-0.120999134944932,11.1480863025584,2.73067132651223,-0.427822744935223,STAIR_UP
2.86,0.21602351908256,-2.39755782583358,-0.209830509434837,4.23992711925451,0.40135315054644,0.837196448791337,0.55742847908189,-0.415892644457791,-0.523128714270344,15.1905929451259,0.318714566350907,-0.537013356265791,0.249542243704463,-0.129163402005272,-0.0590436526575396,12.1680396188266,3.3621523335171,-0.484331011456336,STAIR_UP
2.87,0.260319262938458,-2.3509771349826,-0.194390199194179,5.98684888503613,-0.489246916945946,3.11826559541838,0.667486771530784,-0.186530047757069,-0.53059279694054,16.2040584550252,0.800854354099232,1.0164725992506,0.222693096707848,-0.110779364418227,0.0284221801124524,13.0311297878099,4.05150986895568,-0.563244824080849,STAIR_UP
2.88,0.312623800458059,-2.08138891392005,-0.307672868011832,7.63055781867502,-1.14179389223331,6.55598782075605,0.634162035233137,-0.0108428673230443,-0.520493444472139,16.501940312737,1.2550409673823,2.13125641008828,0.159486929742337,-0.121032270219362,0.1205501491101,13.6256463331297,4.63012584127414,-0.308991941610649,STAIR_UP
2.89,0.533429599218894,-2.278457735585,-0.491954516538597,10.9037303517151,1.43876023172376,5.90204369129446,0.456305939304073,0.0998712886186566,-0.504987948339259,16.2293850148731,1.74492975973987,2.23570698996036,0.0583827765700709,-0.135728024355875,0.204644388805765,13.744642357366,5.2498869477407,0.192053158255935,STAIR_UP
2.9,0.546130094540567,-2.89417869338305,-0.496765821082929,15.3622786189071,3.42904503155158,1.14619598388895,0.14040201252298,0.221762563011046,-0.480014552379813,15.8932013732325,1.81218500054548,1.55757340495602,-0.0815078608230292,-0.104729587582966,0.2490568085261,13.9250883829024,5.39220783084414,1.20526445142126,STAIR_UP
2.91,0.514934033432904,-2.90558585620646,-0.431214324402909,19.8662555686384,0.369158976826965,-0.55941888247196,-0.236070313992125,0.388333089729172,-0.473891163386581,16.1263106724963,1.22178709353534,0.60357786782663,-0.28359906458663,-0.13985860294413,0.21849525107476,14.6017314656129,5.00581090591591,2.42286563127587,STAIR_UP
2.92,0.455035910652241,-2.37302242733787,-0.631477324928947,22.2720869110648,-1.93049425686382,6.3293697806676,-0.550938555397172,0.57748518288679,-0.470927211565117,16.6197765372492,1.39474074930866,0.313105959474671,-0.461841698741554,-0.267706264837792,0.126212001786951,15.2894721591967,4.1381241168274,2.17644566848589,STAIR_UP
2.93,1.57692790552237,-2.00793872264172,-1.01378771968121,20.6783662786621,3.5311527140519,11.2656912182173,-0.648642319677682,0.689146194581874,-0.429902871292455,16.2052604248056,2.33710355751027,0.644930392016921,-0.45812565160183,-0.305160354473885,0.023711252373456,15.4436544428792,3.45529249578025,1.77272356842864,STAIR_UP
2.94,1.09831310250622,-2.44423828470692,-1.12517246926712,18.1405057702448,5.67003259279352,9.51047068314803,-0.673972216198347,0.759537384334166,-0.312974780401467,16.0083782982315,2.05921961156356,1.81125090403138,-0.378243104979409,-0.25724473015782,-0.0475216122358864,14.7110123311138,2.78857342925429,2.5595976781887,STAIR_UP
2.95,0.873848550276495,-3.02175214415794,-0.638740025468598,17.5046592823941,4.33474187765883,3.64142208123562,-0.712550749594627,0.884634012934198,-0.174337133555927,15.5952873661124,1.54746255914079,3.6691869316139,-0.333516008455776,-0.251812479705129,-0.0903694257972456,13.2732754036734,1.77300002045935,2.55525807567548,STAIR_UP
2.96,0.775068154163938,-3.35106913670819,0.0756348514598322,12.845234475158,-0.499591801040079,-0.584222361998934,-0.602836090546246,1.07982349234785,-0.006679582620499,14.9025675837868,1.09950747447572,4.78209284434593,-0.265837345945281,-0.264201429970188,-0.0962139031010372,11.6227414708778,0.374270536715561,1.87191765272543,STAIR_UP
2.97,0.622246515398719,-3.19094866330096,0.433224673786937,8.05661749484941,-0.975952455390838,-1.56766467045721,-0.447999776928156,1.40643917640159,0.279982233333849,14.6701050569051,0.908052744214703,4.53050708433778,-0.232981936456769,-0.204268993772637,-0.0490840081525632,9.39758967672479,-0.328633458208385,1.58304020821055,STAIR_UP
2.98,0.528963103224432,-2.68211685799882,0.353588707672215,4.03860707368476,-0.786006077938436,0.545820767794416,-0.403467179506484,1.84929721036073,0.580406844113966,14.825360248547,0.322383807524653,3.84152998026571,-0.18366631957548,-0.0813214404674492,0.0646338856262046,7.82325089357356,-0.111866166614532,1.71976207052593,STAIR_UP
2.99,0.410463614389927,-2.28226974701662,0.207800253223071,1.96661106344756,0.484158597235118,1.7715909759472,-0.496647616454742,2.56880310935195,0.778744549863258,16.1884818829785,-1.2191786779808,4.89439913139403,-0.151686938813306,0.0548719286337026,0.231695564771381,7.19801478379693,0.433568676663202,3.15192573726746,STAIR_UP
3,0.449005485607525,-1.97096887686431,0.0817275466213124,3.29052964974781,1.50230082745584,1.00917315927105,-0.505120675822097,3.6457060656926,0.858122459734567,19.5490809812356,-4.50458457249941,5.37854258377871,-0.198384886122946,0.123305504326095,0.392901312999632,6.93739797133664,1.26832634871127,3.8831245802167,STAIR_UP
3.01,0.608052355820936,-1.70430523867257,-0.0027132316195642,6.34067587170039,0.537811088660979,1.23505535822649,-0.0264856447122123,4.74844528036784,0.988968126980399,21.9392834405807,-9.8647449347361,4.02946494439325,-0.304978427349755,0.21207033785768,0.520858882003503,7.01964074204466,2.1513104526742,3.95012753047014,STAIR_UP
3.02,0.810891088184449,-1.60849202719991,0.0212012108774082,11.7622424951846,-0.422671266525782,1.15051744563024,0.905313697259419,5.06580937317224,1.20505840750476,21.5482662646649,-13.2532091627351,1.30689239786393,-0.521868023359007,0.262450545051748,0.611925383543769,7.51293588240542,2.78919519224234,4.21721628923867,STAIR_UP
3.03,0.899198315717372,-1.6472485750504,0.161294114287842,18.0680073565277,-1.33187417892692,1.21662956217991,1.80992546060818,4.53318477924496,1.31532853086981,16.9812494637725,-10.5518998486005,-0.778958654876116,-0.723675866122663,0.194022481319728,0.64309175250877,8.17533486427701,3.20042686137837,3.38337410668749,STAIR_UP
3.04,0.938643821345678,-1.8746266133462,0.494265761407461,20.6100986151295,-1.64241585386151,1.20189685322425,2.44236744036099,3.37690654173114,1.06244419103569,10.7697027547857,-6.14921756986894,-2.19051925218338,-0.795723471770409,0.100904419968689,0.62479667078523,8.67005620291654,3.11660719209141,2.42508178312284,STAIR_UP
3.05,0.825851407683546,-1.98003745277633,0.612258113963916,14.5278739925485,-0.59152420001297,1.02062420307709,2.72327619619306,2.35106621635695,0.695950962098341,10.9764779934324,-3.0087138687519,-3.5528554885523,-0.842595743722722,0.0793819741586922,0.533245773903616,8.7644799163443,2.54500241285721,2.13619685837889,STAIR_UP
3.06,0.883472652292901,-2.01067612658811,0.52841306839019,9.25523372367158,1.21808394701795,0.259425460957079,2.44678157443104,2.13111278576339,0.368586343296551,14.9410555778502,-0.188258195288504,-5.48363981120022,-0.880530927082802,0.0705746276662755,0.387667029688626,8.64699078164307,1.69722827644159,1.52652496533464,STAIR_UP
3.07,1.02696775133742,-1.94522228017145,0.450816893524851,8.11366897843933,1.49000713610621,-0.42744986704884,1.89118610360612,2.72051169699892,0.19820769419214,15.3789032917445,-0.142438624754701,-8.07054115766257,-0.862672353467893,0.121939857709462,0.220208604525515,8.32395611420157,0.797916512864601,1.24526474862644,STAIR_UP
3.08,1.1579795561682,-1.83415299184175,0.377878650593137,7.93641300447348,1.47173599626221,-0.676530061916041,1.51748404942333,3.5268831572264,0.163264361186687,12.7892005815562,-0.884040532636361,-8.49434905822774,-0.794603271965456,0.134730505717424,0.0794274911612488,7.99256876621258,-0.129090407944165,1.12709811015715,STAIR_UP
3.09,1.29745497984581,-1.77467082753423,0.307256841388264,8.0260403821514,1.71514453969094,-0.567443822891811,1.44346014101673,3.80816351835144,0.0901901470946193,9.33211482649703,-0.497442207060492,-6.71181803936139,-0.670500863061885,0.087371060931012,-0.0110688591870307,7.75682346199355,-0.955803244334878,0.917277373503333,STAIR_UP
3.1,1.47818068246331,-1.77323557334996,0.269314444139459,8.37640321566705,1.6949964743426,-0.879724001060804,1.58889480726443,3.53149425739901,-0.037902652450298,8.671681705056,0.545515145185903,-4.86315470316866,-0.521140795928703,0.0199917474838102,-0.0139844036554976,7.63799464305931,-1.55042126049654,0.827039883081538,STAIR_UP
3.11,1.63982768667893,-1.78502420302853,0.278893645439839,9.14588258342717,1.68981137233512,-1.10379208373103,1.55831155852952,3.47673993240049,-0.148406131087299,10.1238120300667,0.968533204320117,-4.21975429141272,-0.36780110065438,-0.0460074024229521,0.0487818615937036,7.65766428506517,-1.82535206670782,0.741603572867734,STAIR_UP
3.12,1.70366240437597,-1.84477343150804,0.349197001005099,9.67663593926172,2.2629767783886,-0.830043759984498,1.44547492933899,3.71936336971299,-0.150307776596367,11.8574600691667,0.237286502176166,-4.24793912062556,-0.233869934551463,-0.07916475411701,0.148322020476723,7.97170116455295,-1.82879464110645,0.780499902434959,STAIR_UP
3.13,1.68770492693297,-1.90959252830147,0.427588425471816,9.76190687488755,2.93636669047354,-0.61095769558342,1.46895841239582,4.00070484916413,0.069642177960899,12.7149416603686,0.523317828037725,-5.02588474284168,-0.120804122638993,-0.0545919709621875,0.25611209491971,8.30827506541852,-1.71690957295897,1.13668640965871,STAIR_UP
3.14,1.62571320884919,-1.923840761561,0.459835909538108,9.72059929953526,3.28652773959302,-0.610345224108571,1.55945780776452,4.12786018900585,0.328727282497241,11.6901534932762,1.21054066997766,-4.50922534577765,-0.0555482393227184,-0.0224072574234793,0.345487071919929,8.5767321049775,-1.50743263870307,1.43171299808362,STAIR_UP
3.15,1.48231700716413,-1.88714892337327,0.440777485967742,9.62302566979485,2.8897240860375,-0.40348212715803,1.5068674798807,4.14129451091349,0.454331353991126,9.58396432409985,1.59449306790386,-2.74311565675191,-0.0153220415111297,-0.0061608442821043,0.401105716808287,8.49872620656935,-1.22658079691008,1.65691772308108,STAIR_UP
3.16,1.34267307713057,-1.82783157017381,0.387826621212031,9.59668455575228,2.57517638581316,-0.400799401636682,1.28107809063671,3.87537701629128,0.450743211369314,7.25499320667621,1.8338315377812,-0.549613532870474,-0.0021436765497468,-0.0072586699273712,0.43047341847991,8.28604262638446,-0.983628900126752,1.86285683701181,STAIR_UP
3.17,1.30292391331362,-1.73729896715805,0.372194023113478,9.63821770443376,2.11152676515678,-0.359637356425551,1.10511120751658,3.4165214827473,0.432061117206644,5.61327106140177,1.94990944806138,0.407906033817921,0.0273206058698809,-0.0214565551232371,0.414637165237303,7.85313204663079,-0.841638466890456,1.77414960021452,STAIR_UP
3.18,1.36879273648125,-1.70145830251219,0.381912619626356,9.64364862164998,1.58546652588735,-0.22069166069113,0.951531559435296,2.98922407347469,0.427821685449184,5.41334934561217,2.11884200144511,0.0983255310279049,0.0590163697994228,-0.0171428496907922,0.391230899483242,7.59064226634273,-0.659069670972477,1.69315488995726,STAIR_UP
3.19,1.45205995345413,-1.6343645850744,0.395617178524033,9.59508337848743,1.27496833514269,-0.18404838055701,0.65904161986514,2.75152107774869,0.434119766315902,6.60098377515639,2.24743064434818,-0.938852435239808,0.0723658631619626,0.0221760158697497,0.354481038618562,7.53598095510256,-0.553491467547543,1.47288162818134,STAIR_UP
3.2,1.5596272739047,-1.58937523276325,0.395473687609629,9.16263068064354,0.882737165279264,-0.226861042340977,0.328026548992122,2.74262104334297,0.525863264325234,7.02356808691248,1.63649794259294,-1.97070121434744,0.0907209884575011,0.0650255386673759,0.326351330182438,7.55162329697317,-0.386786822417019,1.24742097720833,STAIR_UP
3.21,1.69469452551212,-1.62513605292886,0.418177795801234,8.92432527887966,1.0184867252922,-0.493679111032651,0.171026225965511,2.72331209864958,0.626910307157298,6.89128372498996,0.919358937408421,-2.28791238300567,0.0983692610727113,0.106914373924908,0.295573538588466,7.58570857081608,-0.205170259104482,0.974839710809973,STAIR_UP
3.22,1.73030519399286,-1.5526022548567,0.427454840081576,9.17347549051123,1.01274326850534,-0.492789716492704,0.26774274200803,2.58213652678265,0.650627324540531,7.20842060773966,-0.133307552006151,-2.39871421865127,0.0761284221472146,0.142100256662926,0.261843345814097,7.57739395318664,0.0280482722660793,0.976310893967766,STAIR_UP
3.23,1.73030519399286,-1.5526022548567,0.427454840081576,9.17347549051123,1.01274326850534,-0.492789716492704,0.562678256130738,2.41505798445844,0.643956375888459,7.42350374331755,-1.12696757655929,-2.27185686451793,0.036283611452606,0.166324879884991,0.224613189750871,7.56479380158909,0.258381619905935,0.821627152928318,STAIR_UP
3.24,1.71722439305493,-1.44471932950328,0.42242961552641,9.3984786990728,0.956882612673159,-0.475226489966303,0.879561242269943,2.33124662792211,0.599287693720497,6.44667784261308,-1.32950447722761,-1.94076508557827,0.0022071228808789,0.222135207812272,0.193343155721037,7.61647635640177,0.381579902230061,0.735655286802691,STAIR_UP
3.25,1.6909219683559,-1.39444232437156,0.423474478178123,9.21474729980267,1.17151358428216,-0.659124905467524,1.13428703164647,2.22660872455549,0.503739518069858,5.63595535493411,-0.902412908088037,-1.91673596233319,-0.0290206130768244,0.305109505917513,0.171743804605301,7.8007369090824,0.460686462329861,0.905682981280069,STAIR_UP
3.26,1.65773682222066,-1.32158467805159,0.412833005014925,9.1144300368076,1.69743653604775,-0.966871117479216,1.26816535258436,2.09913194572499,0.369527002463266,5.12758446935939,0.0365519700982434,-1.86203780105619,-0.0504329596605948,0.364067445336124,0.162943987930349,8.04075061367301,0.409349615510315,0.938325508978479,STAIR_UP
3.27,1.63943376464461,-1.21756282104366,0.411005945077129,9.26738600786331,2.45193734368625,-1.02220399293726,1.25229385002058,2.0005833052685,0.302476930359861,4.49081741528268,1.1090801329594,-1.38946451262208,-0.0572476546461429,0.413545500926898,0.16437237477023,8.23059835820703,0.259936566425362,1.04164277747309,STAIR_UP
3.28,1.64226557049752,-1.11191768037106,0.408759322995655,9.51161139027613,2.86055041295743,-0.833854133502175,1.09925994241424,1.8680753240741,0.273429269368918,3.87537759517038,1.91969499230223,-0.564543639719711,-0.0319469695994784,0.414440603044737,0.175495311610246,8.46343855327849,0.16548417772155,1.11943564467404,STAIR_UP
3.29,1.56457304836311,-1.05459601280877,0.408270220161013,9.6537341413861,2.76232731541236,-0.412086054386745,0.910106474415445,1.63612510510284,0.275374588469429,3.43212624813013,1.7951290811438,-0.0883567874201198,0.0286715938540325,0.41208578519463,0.191879492443885,8.77304876583809,0.02522744333053,1.10889035052406,STAIR_UP
3.3,1.33099278698016,-0.969563877647544,0.381053530875853,9.76709298730642,2.21918516725237,-0.426300975755027,0.798776949646704,1.35550593990988,0.316687897769164,2.90928985860907,1.13594134228017,-0.084907672421721,0.0923591615620418,0.359260219816882,0.205940939822665,9.04395310743585,-0.0577152097527786,1.19493680755651,STAIR_UP
3.31,1.15623087447995,-0.940391207420538,0.348670603894797,9.49433153928865,1.98652645184887,-0.903161675483,0.727246163925263,1.09592544133047,0.347879103307658,2.38514336092147,0.697239583952458,-0.318381056839923,0.119512254501419,0.310603164951021,0.224773254444654,9.41946295262164,-0.212818693356908,1.26510816040036,STAIR_UP
3.32,0.974047741624579,-0.972707607795674,0.358014289681402,9.79974127473553,2.37093101954716,-1.21124133821128,0.64327795884642,0.824247282208458,0.351783280812926,2.31596925179229,0.0185086494776894,-0.639761394931846,0.140489736399292,0.289477765438934,0.238021832541928,9.8973385989163,-0.251275801799586,1.10408792826327,STAIR_UP
3.33,0.818002587980242,-0.960590411988702,0.378343467164123,10.227431337172,3.04397207520715,-1.3758410724652,0.551271433426815,0.578797665245597,0.340696275996648,2.60618777070952,-0.56798706586318,-0.431494118469834,0.151411607208645,0.27477482653065,0.245582617058493,10.2715399102349,-0.0900981235179391,1.11032724544418,STAIR_UP
3.34,0.634486986602649,-0.986904192063103,0.404662983048749,10.6542316165081,3.62151778958743,-1.65099274641982,0.536335008829106,0.345435716944294,0.346124542394228,2.86761569695769,-0.72040139070269,0.0350950690356644,0.160091770156138,0.224644832160042,0.253545420864354,10.6796385345143,0.152598190617624,1.10028693828943,STAIR_UP
3.35,0.440601926111673,-0.948551023225744,0.418106155714222,11.5401924066625,3.72395571359289,-1.93395153349358,0.623931801739414,0.0968206852341562,0.371656722115205,3.1237884784988,-0.757393858345582,0.290216410952215,0.16722107602687,0.151372672441185,0.25869994110302,10.9727152331574,0.359619130108831,0.957354442766845,STAIR_UP
3.36,0.226441381476329,-0.844254331950117,0.42029607503765,12.4377611860312,3.01676628628533,-1.9238287436567,0.769402570744921,-0.202647071869633,0.396490775107577,3.42023136587688,-0.852588924874158,0.236089614580148,0.157671755364652,0.0809707735987077,0.256235317951284,11.1306436209411,0.376677744879739,0.681883299003127,STAIR_UP
3.37,0.0546179189983728,-0.708162513119875,0.435336048370188,13.1121818413873,2.57980484763396,-2.00601284790941,0.864498779296496,-0.534925995912828,0.406766088278243,3.65537128235843,-0.658386748074141,0.384875792037264,0.106127476382513,0.053579893929281,0.249753681209238,11.3269469877265,0.211567375252372,0.469481621750649,STAIR_UP
3.38,-0.0585554166415859,-0.579926017045513,0.463347028808802,13.2496384405023,2.35345719484609,-1.6129705935985,0.82218030388997,-0.856252914997518,0.403189122197064,3.94920173210444,-0.309928986900598,1.13962310497128,0.0222308632490835,0.0384102937240961,0.23573479737991,11.6838468971568,0.0459070907978932,0.6219474997506,STAIR_UP
3.39,-0.130123251446013,-0.528291076816941,0.497757645686017,13.5728354317803,1.96804074545395,-1.33076881053876,0.647983314222913,-1.18927601508418,0.411393864396982,4.20806061601672,-0.0670290514923744,1.75512410933683,-0.066339968877699,0.0158422277214911,0.216137204641753,12.1244578070821,-0.210809755850418,0.652504072975533,STAIR_UP
3.4,-0.185767370116666,-0.53968473894948,0.529000018163345,13.9843114061844,1.41175378740955,-0.699898601746785,0.436011359351353,-1.55548861941838,0.4261717908239,4.40603815813815,0.003422464420734,2.06582454003763,-0.121341090093675,0.0049076067984684,0.190919545864712,12.6502896770577,-0.431403052266311,0.555304412503078,STAIR_UP
3.41,-0.228189705269644,-0.486062112398271,0.562400088936952,14.7439959280574,0.827375519078946,-0.150386772081769,0.264623761005768,-2.0139992929026,0.473657751544147,4.62971005253087,-0.236539200052038,1.97073522472353,-0.133780278889264,0.0076698962617779,0.14332462729892,13.1436190901796,-0.622305046511997,0.41432204845494,STAIR_UP
3.42,-0.243727197329787,-0.322963029835826,0.553977539782699,15.3952859798933,0.178477534878365,0.621505141814168,0.125700035550589,-2.47691416246473,0.508009337573006,4.99996769567808,0.886141466150208,1.64022178334559,-0.124494004815325,0.0251718174280741,0.0613383196765947,13.4392897903018,-0.884120865114001,0.344162378728592,STAIR_UP
3.43,-0.296201958610957,-0.103853231560299,0.532968480650736,15.9001428896297,-0.0450155180983517,1.14987496843205,-0.132029448612944,-2.56727204716931,0.648690356510566,7.69983733656168,2.61228688849697,5.22570236201065,-0.0967856365907727,0.0381676108120246,-0.0454527874789308,13.5577439111506,-1.13558049585084,0.504754629396717,STAIR_UP
3.44,-0.312950502381503,0.152084418147852,0.492873688201948,16.3553341527747,0.75232455628311,0.767421733404017,-0.373763561424777,-2.24859758987958,0.977333964679174,10.7661783405303,4.35527670957621,7.9718958476039,-0.121474907598888,0.0884084176298881,-0.155130986224167,13.7447261500216,-1.27209250257178,1.5066032779977,STAIR_UP
3.45,-0.26960203119414,0.398612620889798,0.398314197746685,16.4710483967579,1.16082966282881,0.70687661489863,-0.18607635153213,-3.14534356062926,1.09948444179746,14.1509272347386,1.81421377525788,0.546054272337701,-0.315518700759858,0.0226564783629138,-0.215075262745881,14.5255425883041,-1.13699763195689,3.05491633876331,STAIR_UP
3.46,-0.203321668322163,0.601151532821608,0.298901062273759,16.410457984714,0.534678170086763,1.49035184742813,-0.226390309686059,-2.63258174930977,1.63834443366165,19.1479201450431,0.597286967322163,-0.953019821996874,-0.497637269273458,-0.151266103052331,-0.195722759216865,15.6666952926719,-0.9171869934654,4.124013662662,STAIR_UP
3.47,-0.18787806035866,0.800979053970116,0.221663711377015,16.2299751374983,-0.0434276444757093,2.53968781368225,-1.04915219952845,-2.3771383720467,1.8058467354172,19.7282751415681,-2.47486369884912,6.09555187760689,-0.36157645735211,-0.247312031436645,-0.116394985275654,15.6295185835123,-0.903569182388112,4.32587793892507,STAIR_UP
3.48,-0.139273877028041,1.03518309979419,0.117391125175032,15.5605483161004,-0.265272816023739,3.65697763848567,-1.66709293572484,-2.53926739637076,1.4870664540166,17.9315175887443,-0.836705842789033,7.04316213078985,0.0435773865597155,-0.486482286137638,-0.0175296259647766,14.5219453645352,-0.546858380514935,3.26596824680151,STAIR_UP
3.49,-0.073114603823862,1.27207846375311,-0.0052381188310093,14.6369745101164,0.182575132872012,4.73970255034429,-0.91405440290615,-2.73843364824152,1.24267855440962,14.770129808681,-0.49745362450834,7.48211746996178,0.377556339738015,-0.677048184837718,0.0417885327922095,12.6672841225457,-0.038823833569445,3.34367687172961,STAIR_UP
3.5,0.035024963904379,1.48174237602041,-0.145315188929929,13.5518325166018,0.909067312337831,5.29035860370202,-0.482136228736061,-3.47143823278584,0.597871071561761,13.7310400922846,-2.53292425821042,2.94874204444184,0.27997898894784,-0.673150501587155,0.0985841150790082,10.382244416297,0.507671610455031,1.8058238246263,STAIR_UP
3.51,0.175778914166266,1.64111632981062,-0.246983449431362,13.0366605475905,1.46648393276185,5.28028219839003,-0.644939735848558,-3.10489372685389,0.0320051263998442,13.8094059430837,-2.23048625783138,0.249804607232263,0.423340050020681,-0.582658766602561,0.1546444601954,8.12776235286641,0.752786573001696,2.96583111534314,STAIR_UP
3.52,0.256720605734284,1.8166554267733,-0.309159356078774,13.3410843160088,2.24085926542691,5.10683264785736,-0.276795478320289,-2.75015684026593,-0.129939701761189,10.8639540961321,-3.11856908411014,1.3601727500281,0.586875657573893,-0.570250470720785,0.150714113582329,6.95514458050198,0.784620444881263,3.62475555698304,STAIR_UP
3.53,0.23084480098517,2.09109229354606,-0.355073460749572,14.7139712689708,3.73191505004421,6.03810505837782,0.107997726455769,-2.52967220055312,-0.159716746172231,6.93714586205623,-0.830800214723686,0.18849552289838,0.423129825995956,-0.482771137671069,0.0763091416016877,6.46801728987157,0.631282438838101,2.59877224397428,STAIR_UP
3.54,-0.0054195236224428,2.43352850313573,-0.483359125045312,16.7478691942159,6.38762436497978,6.91744511072715,0.344063824652185,-2.25524867817687,-0.121765173162197,5.08969546340018,0.340042812211193,1.33713491490171,0.37254438125938,-0.395471514245122,-0.0176300098719747,6.0272530293506,0.0873466567586329,2.97925815401098,STAIR_UP
