time,left_angular_velocity_x,left_angular_velocity_y,left_angular_velocity_z,left_linear_acceleration_x,left_linear_acceleration_y,left_linear_acceleration_z,right_angular_velocity_x,right_angular_velocity_y,right_angular_velocity_z,right_linear_acceleration_x,right_linear_acceleration_y,right_linear_acceleration_z,pelvis_angular_velocity_x,pelvis_angular_velocity_y,pelvis_angular_velocity_z,pelvis_linear_acceleration_x,pelvis_linear_acceleration_y,pelvis_linear_acceleration_z,label
0.01,0.0166217078672129,-0.0151126185888878,0.0056141703278636,9.62529773421253,-0.507043433305971,-1.59045510809373,0.0060978015273698,-0.0107297313705103,0.001262082670613,9.49674002605191,0.95077480025828,-1.88525109730356,-0.0060177541446624,0.0030359045759752,0.0168463578831286,9.582354929337,0.759551036983468,-1.98868018901733,STAND
0.02,0.0196770684484089,-0.0135277325223598,0.0070854328793977,9.69776425870913,-0.506378408077944,-1.56587907306106,-0.0076613795065264,-0.0168989181685507,0.0022331952853823,9.54425969950255,0.924498256284497,-1.86180912875183,-0.0078475108231741,-0.0029822824729351,0.0167250281786637,9.55510927483597,0.733483836287198,-1.91649868815553,STAND
0.03,0.0181623139266031,-0.010382026951932,0.0084201002470783,9.71951698945521,-0.494029274553536,-1.4451450212166,-0.0168648670241219,-0.027698122275858,0.0046625770513071,9.59063733425798,0.872066055634549,-1.81662901775524,-0.006732530454415,-0.0107931822060298,0.0226916103186731,9.55246235872604,0.706541842253849,-1.89365018518839,STAND
0.04,0.0060387140303673,-0.0028375978251735,0.0048092023626753,9.69595044835357,-0.499971435544613,-1.494764551398,-0.0155297187148276,-0.0218871714961318,0.0125521161536904,9.61789983976424,0.901497975286732,-1.8888288228131,-0.0053419365408455,-0.0138304028760297,0.0180538096760213,9.52787404231332,0.706241508522797,-1.87050293396704,STAND
0.05,-0.0046895833115422,-0.0009669401982368,0.0091767483899777,9.69581600218991,-0.419610775407958,-1.43044812907022,-0.0124286559419849,-0.0126174675387071,0.0099230568753973,9.59317055542498,0.924993419627656,-1.88962494177861,0.0050775352804123,-0.0190275834753904,0.0225727304253785,9.54933629051444,0.676646110092633,-1.84850404600778,STAND
0.06,-0.0062342199097644,0.0023519440163142,0.0135580233583818,9.69529560371264,-0.417873781346096,-1.4061512939008,-0.0033221296365726,-0.0050445105706687,0.0119497280527112,9.6119064700673,0.914784698212623,-1.76769208738328,0.0109496182303275,-0.0238782784131112,0.0209705663306379,9.55154952859834,0.698690156024697,-1.84966607289367,STAND
0.07,-0.0245861506830238,-0.0006288404824597,0.0120070757634501,9.71871176766105,-0.440801044607937,-1.37859919108687,0.0043666550605621,0.0011771199101092,0.0093097909998556,9.63669060859749,0.840751312453554,-1.77235210704094,0.0214768825578033,-0.0274091373364449,0.0178795963078473,9.5802401706971,0.741681916099926,-1.82586035942302,STAND
0.08,-0.0337996489732388,-0.0019029821470049,0.0150400643824479,9.66839337907215,-0.459645364522142,-1.32866478951624,0.0027667024355576,0.0025847774984544,0.0123816928545732,9.61321945772317,0.914514208673926,-1.79205147048399,0.023155538814065,-0.0244393015844963,0.0179414183706233,9.58522026722558,0.789931176181217,-1.87544138998941,STAND
0.09,-0.0383535571951065,-0.0020360570092677,0.0119433766414119,9.66834310322574,-0.568461340433311,-1.41511092729812,-0.0047263691560689,0.0028149176875563,0.00610859531639,9.61926341229102,0.849945884999214,-1.91895732764404,0.0262753968590105,-0.0230994358170033,0.0195041239248487,9.56540654086746,0.837786451257784,-1.85176036979851,STAND
0.1,-0.0429224255894255,-0.0020825690630255,0.0103701911175623,9.71707205692949,-0.623777693801657,-1.45754789242314,-0.0062978780515292,0.0073314207563042,0.0077727115753794,9.57074801009495,0.825004234367554,-1.92253626428255,0.0067997354466079,-0.0158521255331415,0.0119463818243869,9.56801421141311,0.862057307170191,-1.9016359335432,STAND
0.11,-0.0397915546119743,0.0087266195989498,0.0128549845818543,9.69168945793406,-0.672399184629427,-1.45258873990028,-0.0185236589084372,0.0134277095425159,0.0077244553735701,9.54621190004994,0.921853808615858,-1.91509727768023,-0.0143831033682506,-0.0117149108712537,0.0119676232586682,9.56554533145134,0.837621982852453,-1.92823824368473,STAND
0.12,-0.029019287952888,0.0114261140940068,0.0082315379229032,9.66736029480109,-0.672498100020966,-1.45237659443368,-0.0230492327522282,0.0043339220383243,0.0057432269426573,9.52420433921404,0.949686776746498,-1.96194641770912,-0.0481263474169214,-0.0144572942459482,0.0057162489543193,9.5798788067615,0.738724240314967,-1.95725453725684,STAND
0.13,-0.0137681711679591,0.0050294924758927,0.005689925231162,9.66888652767233,-0.680985627027988,-1.52450067036396,-0.0231197591049927,0.0042164927253403,0.008791907527647,9.55119654016865,0.904538817167912,-2.01257707551188,-0.0607763828225112,-0.0229174556894445,0.0024680504576423,9.60117491616225,0.711709848197375,-1.93511457178405,STAND
0.14,0.0107265337195103,0.0077786395175267,0.0042657477344767,9.62111035741791,-0.659039592812676,-1.55192178777365,-0.0246693905718393,-0.0019433128079853,0.0100454910221103,9.52466379174878,0.900336812574883,-1.96475308948158,-0.0657232766072071,-0.0302136367399157,-0.0022680099374506,9.57685630421021,0.718245544580441,-2.01046404398618,STAND
0.15,0.0413036907076518,0.007426716203112,0.0030787277003562,9.62314074887482,-0.562760747717806,-1.56183793886733,-0.0308525127056091,0.0009877706036818,0.0130707602620458,9.57343956512376,0.924135863814497,-1.96039687150186,-0.0571286519737762,-0.0413764885850705,-0.0009387783787506,9.60010765706973,0.715227257933024,-1.96460751076713,STAND
0.16,0.0442692703967828,-0.0001324589825239,0.005060182220121,9.62317477672814,-0.563820435436761,-1.56124597140881,-0.0202015673602984,0.0009296757710705,0.0148426536731026,9.54581822467691,0.917599127482966,-1.8882581076481,-0.0403035032800461,-0.040831513104378,0.0052194077657906,9.62886233754638,0.763960756122996,-2.01499330608969,STAND
0.17,0.0320446782749764,0.0015838437018295,0.0063634517685522,9.62364051955807,-0.540709077010427,-1.56368519514257,-0.0186694593292563,-0.0021204697078232,0.0147591858870439,9.6126059817308,0.832109697839831,-1.7445685680695,-0.0279715440282735,-0.0385305712742982,0.0114011142944347,9.62550216203505,0.73860448603747,-1.99514541745866,STAND
0.18,0.0244347525417577,0.0063073327088305,0.0075462167470215,9.66953919585301,-0.580228894863735,-1.4595892169079,-0.0247082972043398,-0.0004757176266474,0.0116286940415386,9.63829246888372,0.808785378136392,-1.76960296175956,-0.0181443648409331,-0.0254406991331059,0.0193230629686015,9.67105338241526,0.708323680603671,-1.99899864485463,STAND
0.19,-0.0000613485007033,0.0019529503846673,0.0075316679547654,9.66955500301833,-0.63513467594575,-1.50215959545838,-0.0308632946033495,0.0070908626046868,0.0133103204284244,9.63724220146207,0.830498450698338,-1.74283308764724,-0.0052435998773345,-0.0123239174626924,0.0180804257373019,9.64640258944021,0.708265350198542,-1.97636645822369,STAND
0.2,-0.0167938723372115,0.0113289390953088,0.0083549115465477,9.67058609220305,-0.668257747877891,-1.57160277744604,-0.0230636089254422,0.0134901641710325,0.0061058727895077,9.63668821810219,0.730757510041177,-1.72498696271578,0.0028434341009617,-0.0036055080027824,0.0197974065326941,9.69244431546138,0.67718235851464,-1.97808718374768,STAND
0.21,-0.0167628984136297,0.0111574297689045,0.005308017033155,9.66874018257324,-0.711691228529447,-1.51666166151771,-0.0122172430620412,0.0244646467274303,-0.0008457959696585,9.56735765973394,0.712281597081735,-1.80130291048821,0.0074906767924034,-0.0023484899187548,0.021357697137102,9.66322066683126,0.629069224841607,-1.9804110014719,STAND
0.22,-0.0227977052227896,0.0156113659456987,0.0019365735209658,9.69232703312048,-0.706712333517742,-1.46644792493127,0.0092344678050246,0.020005267946068,-0.0035752996308816,9.57360654638585,0.673477236900742,-1.92457077028452,0.0151863715100064,-0.0012493396117037,0.0229189219754947,9.63652505267387,0.604959193797715,-1.98166112051546,STAND
0.23,-0.0060037919305953,0.0123283176752754,0.0007732421145919,9.69352318980761,-0.712091853264975,-1.51370731959518,0.0168292982011603,0.0214686731787383,-0.0018115823200342,9.50418290455687,0.703621685239503,-1.99713109472252,0.0200025174102792,0.0031459775857042,0.0199581110369517,9.61262593536496,0.607024187634376,-2.03048056174215,STAND
0.24,0.0200834875642192,0.017933296231537,-0.003842638135856,9.6424499562777,-0.75149517311927,-1.4350944204376,0.0306330280320318,0.0261617923116984,-0.0043558124375051,9.52885892779264,0.752109817027259,-1.99004802700008,0.0278711149722599,0.0074129776889146,0.0154704301995715,9.58615247263196,0.584071696403933,-2.05551021229988,STAND
0.25,0.0429903869023719,0.0145958283339967,-0.0049331890063868,9.64220793954039,-0.748785346016149,-1.40903449342941,0.029132104069552,0.0109108579614232,-0.0049902460752412,9.52564070199707,0.770568313073778,-1.91366252707686,0.0401581558031072,0.0084245509882277,0.0093957004767977,9.61067029946001,0.579650426658899,-2.05492845972876,STAND
0.26,0.0491510358631517,0.0158931766213599,-0.0079951165657146,9.66733446558988,-0.67098012287612,-1.36636805684593,0.0322477363182689,-0.0042811922750299,-0.0070379226327952,9.54888755792106,0.768645623722647,-1.88811112514253,0.0524530430475169,0.009494381393694,0.0002663537456834,9.59455687917928,0.656415962004138,-2.12466360231399,STAND
0.27,0.0612844147270825,0.0066441345843763,-0.0073373706031489,9.66955619980016,-0.628013285963089,-1.41891792293498,0.0261184124378291,-0.0119657313430571,-0.0059554653980048,9.57191616492403,0.766815448019359,-1.86364035407003,0.0570172569874495,0.0091974673166486,0.0033249024487581,9.62916531154891,0.749605935851905,-2.1203080158231,STAND
0.28,0.059773460967431,0.0065710882239976,-0.0088783807984406,9.62389275070895,-0.535778423008607,-1.47860884277963,0.0184492068747366,-0.0120244899629185,-0.004612041149606,9.59232079051694,0.834253923171884,-1.78519780014907,0.0665493266553069,0.0162812994772773,0.0065340642469433,9.59102776354223,0.849946407236595,-2.11587793372476,STAND
0.29,0.0583068496962423,0.0142890021761509,-0.0078070493546145,9.64846517462318,-0.509232783572774,-1.45525036185941,0.0246718093472123,0.0034633735730307,-0.009974817685713,9.59315512973272,0.885136392039432,-1.80633524612563,0.0594705707900656,0.0272566748486744,0.0113153508513682,9.5942305338105,0.87293161845366,-2.13780361794835,STAND
0.3,0.0459859554173141,0.0116995883901362,-0.0016826847503187,9.67297953283554,-0.42879807387331,-1.38879921890139,0.015509334288368,0.0049882986744089,-0.0101326522010655,9.58959670189286,0.904436950433772,-1.73128634425489,0.0496651027427202,0.0445150905239908,0.0146760504588215,9.54879500625718,0.89806941659587,-2.08523524456226,STAND
0.31,0.0443806982565052,0.0057074885955406,0.0001733153022864,9.67404517290816,-0.353794169558584,-1.37193479814782,0.0092861071758834,0.0093869803830492,-0.0055281584338066,9.56756937402192,0.908724053562525,-1.78049475738722,0.0271820162235056,0.0532140529453803,0.0209027132047779,9.54966139864743,0.89379756104826,-2.03211868422154,STAND
0.32,0.0244194476757676,-0.0000362445610051,0.0033364650187141,9.7203289099418,-0.395306520066217,-1.2920200437938,-0.0136516939075425,0.010850782563122,-0.0044884877022293,9.57097892348825,0.963560956586446,-1.84869735329371,0.0000414404833169,0.06060400755947,0.0286153745764827,9.5676853971877,0.815814106006022,-2.0294160060319,STAND
0.33,0.0029918579957435,-0.001284474148268,0.0046942888193967,9.69590101042258,-0.395447605116437,-1.29260864033961,-0.0228655966367695,0.0015808876477614,-0.0020101085747133,9.52460295226175,0.967961767992542,-1.89887545355224,-0.0180769316704044,0.064664949586255,0.0255858075787136,9.5609693505538,0.737956965737913,-1.95285624121459,STAND
0.34,-0.0168932345661019,0.0005896752623077,0.0074172412194088,9.72080120247883,-0.399198722219215,-1.31633559652162,-0.0227812434449793,-0.0044017445444186,-0.0052943874253275,9.50160205877864,0.897601422298804,-1.92992081211953,-0.0215128598813368,0.0572630530806811,0.0223841518247888,9.57914781068014,0.661589144439805,-1.97389014571087,STAND
0.35,-0.0246135900929196,-0.0037364311869391,0.0106375370157129,9.72021987513916,-0.39698205365779,-1.29232658801483,-0.0320341530098856,-0.012206441972987,-0.0012346072448642,9.49939743956427,0.821628889242171,-1.88751597874049,-0.0219611055895122,0.0482616565585203,0.0145757523325934,9.55069920205343,0.613393031742466,-1.94623852540091,STAND
0.36,-0.039942333848308,-0.0081713675121655,0.0107204770643524,9.72020622902496,-0.50584607046179,-1.37880581791409,-0.0288754381453586,-0.0288636146949121,-0.004863490556419,9.49918090905369,0.773813928799965,-1.89301670854601,-0.0085040046798013,0.0416973349051052,0.0007470862680664,9.57333800101088,0.586127914164414,-1.94263782473014,STAND
0.37,-0.0444976008356071,-0.0002498058107316,0.014798569773443,9.74450904502304,-0.533992038319374,-1.40030803647434,-0.0349044776444937,-0.031795479515045,-0.0081750665528855,9.57181649671584,0.7507266446975,-1.8941210095804,-0.0023793606392726,0.0414885737775944,-0.0053465904460136,9.57436613398992,0.587353855744906,-1.96302026111986,STAND
0.38,-0.041343945257869,0.002419339056601,0.0085667828854552,9.67078792745236,-0.611546147820048,-1.44230767364248,-0.0319957988229744,-0.01367288645946,-0.0028129149492338,9.62416297085109,0.881275131451667,-1.98143225435556,0.0098501377405391,0.0409869458560148,-0.0129487133012232,9.55851463536076,0.663508177652883,-1.95648270898704,STAND
0.39,-0.0367583078859802,0.0007673708943474,0.0071844780261386,9.6453684918274,-0.686838912397915,-1.45889935445319,-0.0381412953261806,-0.0122090897373819,-0.0013710636888074,9.6415789563864,0.846280489474199,-1.83728701790568,0.0204459549249125,0.0389300120873284,-0.0144709559941181,9.56482008138483,0.714839432899443,-1.99972177469827,STAND
0.4,-0.0245967841526534,-0.0022162731299671,0.0105487379040657,9.59598421792045,-0.710610473375063,-1.45756519174234,-0.0412523177283834,-0.0015943300257044,0.0005046323787223,9.63652276029547,0.936652375528083,-1.73263562482288,0.0236373371319414,0.0417609962351453,-0.0113474002456089,9.54916902420989,0.791872303977065,-2.01784699286788,STAND
0.41,-0.024676004699478,-0.009833434295221,0.0109811177901839,9.64511383744915,-0.633880728383062,-1.41694726564011,-0.0367684462049103,0.0104859426015868,0.0041450578505117,9.65927804298289,1.08118509219622,-1.6947319042471,0.0190859018574928,0.0433302470737058,-0.0006407738270454,9.53024851291434,0.841328019046811,-1.96352263537974,STAND
0.42,-0.0216678386620602,-0.0112116540815285,0.0141500870310991,9.66979971233498,-0.610961183229872,-1.42029186132097,-0.0398595246739036,0.0287865114561416,0.0048052596971489,9.63111953373639,0.97622901599462,-1.60413883939635,0.0072135056436535,0.0513395313116275,0.0132046942995512,9.58205128863003,0.858736744389504,-1.93343481223105,STAND
0.43,-0.0186595971130393,-0.012590431052705,0.0173187378551059,9.69651254596175,-0.49138318378244,-1.43474226888451,-0.0398786217744529,0.0379372289003704,0.0051727681688778,9.70839832744667,0.957966550177065,-1.67197415516313,-0.0095168565109838,0.0536065950705703,0.0208041769003966,9.588017890287,0.904773779323114,-1.90218336362562,STAND
0.44,-0.0094416338852746,-0.0048860891710186,0.0200421113962388,9.69886523032718,-0.452754476896422,-1.5139074861244,-0.0444357423403241,0.0440990330796479,0.0037864452461037,9.64068647992817,0.941790224874188,-1.7702658793183,-0.0320479347903372,0.0609326596975959,0.0192925136524166,9.61293901340427,0.898904699119861,-1.84749433129721,STAND
0.45,-0.0155540379704999,-0.004828345089474,0.019971377076849,9.67480655401307,-0.45679563600743,-1.53925277439262,-0.0306690555388993,0.0487376516781875,0.0027759239915527,9.61851552438266,0.895452668658706,-1.79487735197278,-0.0610747288208557,0.060965314292723,0.017603949837561,9.58640688870108,0.873604917025168,-1.76919013059617,STAND
0.46,-0.0369475845007015,-0.0046241139583289,0.0197243139149745,9.70006018331845,-0.464274308506307,-1.58777436213548,-0.0276861474751355,0.0287257998086468,0.0066143954868418,9.54619338843417,0.871186215829112,-1.79642065738832,-0.100839369384612,0.0600700334066599,0.0142989989712113,9.60385484893916,0.797229876940384,-1.74088984525627,STAND
0.47,-0.0537387705849692,-0.0013290128451504,0.0208831666997084,9.69887919964388,-0.487043091028157,-1.56129378129221,-0.0200007093561823,0.021163226063359,0.0049637249925224,9.55624808641908,0.86270812619869,-1.99025442544562,-0.122399746371322,0.0553681979356379,0.0003239444147612,9.51854434845846,0.683014546810892,-1.69132366834764,STAND
0.48,-0.0614127078617811,-0.0059102205226677,0.0195272157641723,9.64561172290175,-0.68120265354357,-1.54135816554151,-0.0274983021357551,0.027513929371548,-0.001068893712732,9.52899312786974,0.808322349831968,-1.92000930058198,-0.120981827094753,0.0510782901125619,-0.0180884973991501,9.53596894067552,0.610563916969602,-1.68818519999055,STAND
0.49,-0.0629238339293868,-0.0059799028285728,0.0179863878734951,9.66971446007897,-0.73646911540152,-1.58492019987927,-0.022757089120315,0.021664925357903,-0.0073039993823784,9.46205128705128,0.867912178287885,-2.03855383973096,-0.103114648956027,0.0398194431690511,-0.0365391029502982,9.54806414432163,0.491198807247122,-1.68807574941152,STAND
0.5,-0.0368992571394113,-0.0064919486012071,0.013713119299849,9.66899833582608,-0.734515096274559,-1.56163128038182,0.0047392621685006,0.0140402147030831,-0.0069420335642619,9.57488896817385,0.804023552731983,-1.84037877476824,-0.0719960056663034,0.0200424744815833,-0.0459143908166721,9.59337943879253,0.447071545284593,-1.78390483269882,STAND
0.51,0.001300064165037,-0.0084828886959385,0.0127091595857751,9.66823488743607,-0.759774773618297,-1.55980619757191,0.0047799364619036,0.0125781167706377,-0.008528990370979,9.60395348093268,0.88571550750711,-1.92911909548849,-0.0401492708962335,0.0153165847014819,-0.0457958246198692,9.64243769232077,0.448410079074575,-1.80578328973784,STAND
0.52,0.021173338316542,-0.015198836084479,0.0056526436054611,9.64424107356058,-0.6821766968814,-1.52094636841499,0.0139433730701768,0.011053976268704,-0.0083651290912826,9.64805776004811,0.878324544938197,-1.82844359349782,-0.0077292871270474,0.0226225261331215,-0.0377691889943219,9.64338276229377,0.454958653091589,-1.85262340336173,STAND
0.53,0.027223965301016,-0.0149230362486837,0.0118159023272801,9.64610262725831,-0.613309206270355,-1.554558696815,0.0151826799469615,0.0212901897396921,0.0027804246388465,9.66624753356576,0.96563687007558,-1.69628253513284,0.0293314943942337,0.0325143444066163,-0.0189515380386617,9.65342947312627,0.553492708646756,-1.82131665469638,STAND
0.54,0.0289043676810935,-0.0044429847378013,0.0081961848109323,9.67300289090805,-0.520881301538076,-1.589813612053,0.0183362506362015,0.0275789492662869,-0.0014655952887945,9.6735266196295,1.07462121517215,-1.83190069142494,0.0556123397089171,0.040049670882344,-0.0063709775673369,9.64861447525885,0.747464883689233,-1.73664192255881,STAND
0.55,0.0273765541426694,-0.0044273302281958,0.008179121691234,9.67184524666209,-0.543664871066453,-1.56313569302948,0.0259279582985537,0.029042748138281,0.0003121249480026,9.57671995148712,1.02557888733487,-1.83828716413938,0.0661247170920763,0.0391113096381124,0.0120281725723956,9.68868538817082,0.889175123018838,-1.72663989586481,STAND
0.56,0.0136634831549194,0.0019778268859745,0.0107336991623133,9.69688173053271,-0.467193813870584,-1.52220357835144,0.016756318120169,0.0167784887752815,0.001107615207035,9.60041208779423,0.998802996526229,-1.81276602011277,0.0541261664995813,0.0455554189767136,0.0258288130743075,9.67156465327636,0.958618325976665,-1.64710611487187,STAND
0.57,0.0091869608363755,0.0127747719402591,0.0116123744235067,9.72337156501666,-0.452862902379553,-1.59636803826703,0.0197427393262544,0.0120793108843679,0.0040467062470971,9.6470047668026,0.994267009528655,-1.76048942730586,0.0219858522223463,0.0455749497169626,0.0316902193935733,9.62863762365714,1.0078222350705,-1.61728227113138,STAND
0.58,-0.0076594063257564,0.0082932205797164,0.0101542912601001,9.66933197673349,-0.587572461645623,-1.48315271078831,-0.0000452123747615,0.0029881663116661,0.0016480468314407,9.5801773334569,1.00371668708965,-1.88508105150202,-0.0147509166313793,0.0444393849989662,0.0313691229570498,9.6255257722467,0.958188512765606,-1.663829904626,STAND
0.59,-0.0152689156338052,0.0082024666744874,0.0070209758806272,9.6717903186833,-0.628802760277767,-1.6252585451401,-0.0061351759339751,-0.0046381111524666,0.001183462911922,9.50477663738135,0.95098738502203,-1.84419617137475,-0.0394470435236002,0.0382864322492578,0.0218656680415444,9.57422955009505,0.915659301091093,-1.73555218820078,STAND
0.6,-0.0045925579675071,0.0049586329620493,0.0057880761693115,9.64532864774569,-0.67183123384388,-1.5713138957665,-0.0214754922925569,-0.0062891174084945,0.0037830869615685,9.55645367893148,0.833325367840438,-1.90064048133706,-0.060905679455445,0.0350877721351086,0.0093895869900966,9.58959437278511,0.816449159789096,-1.75981795560113,STAND
0.61,0.0121875868230854,0.006561059685402,0.0104649400026486,9.66870062631786,-0.694727024686441,-1.54321442778534,-0.0060747441040659,0.0031119002280649,-0.0015542456326337,9.55428808735792,0.756501120058233,-1.85803775622445,-0.0535789944979813,0.0272926360471744,-0.0014107059433184,9.6290426144024,0.715944918976305,-1.78427781650034,STAND
0.62,0.0351325556918922,0.0013236757137044,0.003362747822664,9.66772199097125,-0.690314140577313,-1.49415542989985,0.0075750094835267,0.0090890159228626,0.0020906066555652,9.60285315419381,0.829468940083917,-1.84902532354773,-0.0336070844247759,0.0292980800098962,-0.0011906245120485,9.65224836579856,0.692098420811381,-1.83071808081481,STAND
0.63,0.0456728840868565,-0.0092826976526313,0.0071268916258085,9.68898138012857,-0.702530236227977,-1.36970630507976,0.0091336215066351,0.0122016173483719,0.0007295064411609,9.64833436509498,0.774556515240531,-1.7766612560192,-0.0128551696809299,0.0465059373142343,0.0008992159018374,9.5993065188858,0.649142744882579,-1.82984159389202,STAND
0.64,0.037973838800579,-0.0169906166207852,0.0044200102247197,9.7376495362147,-0.677698628637429,-1.34805669233731,0.0076266788190912,0.0030508757905723,0.0003181802437184,9.64836872670614,0.798690246919561,-1.77400676717702,0.0000057240059489,0.0594786282965116,0.005887061055169,9.60130849625864,0.67006742258245,-1.75046424402178,STAND
0.65,0.0412026265404541,-0.0066167623717096,-0.00071538277908,9.71471459363696,-0.632143181678705,-1.37922337870375,0.0122617383788891,-0.0045121322476044,-0.0013996171894376,9.5749933054647,0.847219159140244,-1.7739155571691,0.0122127978518024,0.0602304963183034,0.012133812576788,9.57761475484722,0.670618573208242,-1.72078451001389,STAND
0.66,0.0351903216016868,-0.0022406750919036,-0.0056123368884373,9.7123753432869,-0.729370029322638,-1.36841029800396,0.0138269955316399,-0.0044499356793932,-0.0028849573400136,9.57387226656523,0.796544897496414,-1.75410887562057,0.0195569619054118,0.0565548592627158,0.0228253031453233,9.57873501007052,0.66867147620427,-1.71529795213341,STAND
0.67,0.0307597356344682,0.0066884941104431,-0.0107515397905524,9.68961181616425,-0.709801975123188,-1.41976506580328,0.009215046307177,-0.0075625866937225,-0.0016007523196296,9.57487618835178,0.82286933382998,-1.77710301126571,0.0302875696827533,0.0574831518849291,0.0244831878118942,9.57787132216956,0.642752148403988,-1.73547033490814,STAND
0.68,0.0230629278402538,0.0005882551721376,-0.0120152461623373,9.66534172026893,-0.708570207204884,-1.41977242994695,0.0200876070759473,-0.0042017274906465,-0.008827039977091,9.57987035443271,0.782338097238581,-1.87894160608343,0.0374647373237417,0.0507615474743532,0.0351126122295533,9.60327336411565,0.636731206102093,-1.73004760968013,STAND
0.69,0.0275789594036518,-0.0039427225563229,-0.0101801193777819,9.6917559148035,-0.719495227087784,-1.51620482011977,0.0339460966230756,-0.0055392313057173,-0.0131130986484773,9.55676026301369,0.736169853774803,-1.90908844690667,0.0403877148840112,0.0476167158721771,0.0320206910604387,9.63233137189595,0.656525809152643,-1.77280729560059,STAND
0.7,0.0367178085937765,-0.0038633858584466,-0.0070299208327293,9.66946305391947,-0.675726133850268,-1.57095777878475,0.0385117373410076,0.0005626154777013,-0.0127518450200728,9.6052701967241,0.761077161309987,-1.90516760336481,0.0510734100753254,0.0470806625335327,0.0305986235567392,9.63455614261561,0.654700524694834,-1.81731841770835,STAND
0.71,0.0458770215865367,-0.0006488631551217,-0.0025307447149067,9.67115132600565,-0.603169610218416,-1.57926366572585,0.0324926493357751,-0.0038922710762076,-0.0161378645995833,9.58419922778734,0.816295274041695,-1.97585159315424,0.0571007975990661,0.0438641810742912,0.0229573842458412,9.63676055599527,0.653112379048143,-1.86206354674197,STAND
0.72,0.047337678140411,-0.0051467399102591,-0.0007276115382449,9.62212614947182,-0.491697314842633,-1.47032795639595,0.038595066705117,-0.0023644165403533,-0.0159226817362387,9.4862344185256,0.86571356133984,-1.97749748077798,0.0666858087511314,0.051054275465403,0.0201604046621346,9.61793926475636,0.679659733521606,-1.93052960634327,STAND
0.73,0.0380653636930823,-0.0125805562745196,0.0011320396330774,9.67072244265756,-0.520418614055749,-1.49131161939082,0.0400175926979677,-0.0071207975178731,-0.0114930795357683,9.52988245432033,0.858555916746147,-1.87859731460832,0.0654006367650247,0.0543039951576897,0.014099887437677,9.64467284435259,0.696472978458995,-1.8755975871023,STAND
0.74,0.0334305998715446,-0.0154913388082396,0.0027804812839786,9.64505501825923,-0.542050978141579,-1.46596257044216,0.0245559231247346,-0.0059057848572058,-0.0041970829399683,9.60343977365067,0.982397422766896,-1.89050269371173,0.0656825905347336,0.0589342899936266,0.0111414616696107,9.60182313295088,0.746825550892287,-1.84527399710591,STAND
0.75,0.0151744337042595,-0.010909580438792,-0.0007348821219428,9.69326753125452,-0.513597014993654,-1.42035996983238,0.0076564863907646,-0.0091465106134558,-0.0001677384916584,9.52742988259401,1.02704868308373,-1.84261966263844,0.0691755168831658,0.0664470688385759,0.0082783379750981,9.55772959359663,0.795623900658532,-1.76572641486871,STAND
0.76,-0.0062690335979371,-0.0120343953550641,0.0021638552189259,9.66822213412421,-0.510387972371444,-1.39774306718598,-0.0077661232263053,-0.0078707798739594,0.0056050202762349,9.60154643311358,1.05313585143472,-1.86213954259178,0.0655590648626131,0.0559466160060197,0.0080305847472553,9.54104141309481,0.867230083449879,-1.7092884639724,STAND
0.77,-0.0199557936828607,-0.0074112483825635,0.0002240286035735,9.66686464612552,-0.585885654102477,-1.4145242084006,-0.0167885482356253,-0.0015346925707214,-0.0004818480232509,9.57369204124221,0.998641313177542,-1.79460617184385,0.0606022251610243,0.0486032218960675,0.0062993089723516,9.4717906690792,0.89757989809708,-1.70564303032216,STAND
0.78,-0.0229417229446694,-0.0012864393785452,-0.0001626684117731,9.66774762514986,-0.59124363633276,-1.46356018404266,-0.0059569583989397,-0.0135491490805706,-0.0052673378160687,9.5719655050773,0.824901075432693,-1.76006391768583,0.0508470982075369,0.0383751141913991,0.0090362456643673,9.49807195833933,0.915787596546915,-1.65170312945943,STAND
0.79,-0.0199379032855225,-0.0058879322148101,0.0001352168241292,9.64282070124999,-0.587599920774923,-1.44032141432173,0.0003132622355862,-0.0178797216085007,-0.0113918518544523,9.62683517944974,0.762435418444289,-1.88641499431968,0.0318515000743073,0.025674742949665,0.007018073159241,9.49867391110128,0.914342756930697,-1.64903963754062,STAND
0.8,-0.01398037787307,-0.0180493145695405,0.0024291817853417,9.66713796229447,-0.560918806202194,-1.41960771172046,0.0049308529250161,-0.0178163760504227,-0.0128017835741198,9.57750948309886,0.787821851679178,-1.88866080249869,0.0099488822268223,0.0161587847036338,0.0065467151750032,9.49388424950037,0.864839050221522,-1.64910931265938,STAND
0.81,0.0011820624554927,-0.0272591709957967,0.0046451915840555,9.69371413903057,-0.521639793530684,-1.49966322382627,0.0159770333146086,-0.024891844138053,-0.0265548567493622,9.62304191992105,0.613443390034602,-1.82888998594265,-0.0057328908801063,0.0078924339022789,0.0031243808603174,9.51319070803421,0.813206760751689,-1.64923657129429,STAND
0.82,0.0102910771953125,-0.0286128522403989,0.0094011282528376,9.64286792220988,-0.56706258419481,-1.47351254281181,0.0524177512859183,-0.0083243803406191,-0.018891067370685,9.5185114465436,0.702596131491884,-1.70632715253886,-0.0165845708920392,0.0053933132409517,0.0044588570176928,9.4772412570382,0.716897661931826,-1.60409466661219,STAND
0.83,0.0011819090809888,-0.0272589073418434,0.0046465132873832,9.68931108716293,-0.584624226666081,-1.39960173182974,0.0368824734700285,-0.0194931362305512,-0.0074916082202284,9.6645503712878,0.899998841746466,-1.70984273340641,-0.0248102641498631,-0.006330056082955,0.0010724218967704,9.52058139573077,0.663202768771597,-1.60464148267564,STAND
0.84,-0.0095222209409669,-0.0238355644611204,0.0089293241721755,9.68847088564947,-0.582403199002186,-1.3778548489288,0.0017816524279271,-0.0103176808876874,-0.0095235269372424,9.61783313336592,0.904193912079291,-1.76247709837741,-0.0356175807541116,-0.0087744621249792,-0.0006485766287383,9.47004163055267,0.645538803428316,-1.63172049070538,STAND
0.85,-0.0140044072619512,-0.016259146879467,0.0069192184986099,9.73363363556761,-0.618438190387111,-1.25201665245401,0.0078698530960938,-0.004210531322307,-0.0091362472826507,9.61480466418271,0.974224097334103,-1.70890963630115,-0.0243597758759713,-0.0276594284914941,-0.0039080938697724,9.46571717416316,0.620219856880718,-1.5854306423551,STAND
0.86,-0.0109217191802818,-0.0115450457835789,0.0097336730541233,9.7364157559903,-0.554798446051239,-1.33460148391475,0.0123756565291055,0.0079365134481695,-0.0070253772222225,9.61446275762419,1.02350818950736,-1.70504206724942,-0.0168595974644378,-0.0310617596557154,-0.0069285154086526,9.51704632474536,0.640956739252384,-1.61031198481086,STAND
0.87,-0.0107697336183281,-0.0010579347364212,0.0060727437484945,9.73471475231005,-0.601103419766082,-1.30542445694451,-0.0012518553792519,-0.0041618587316023,-0.0108849797433608,9.5708446612657,0.95872925191391,-1.81023532460574,-0.0054665370707862,-0.0455141976275159,-0.0024664548517055,9.61415063622725,0.631983146535947,-1.6359122928369,STAND
0.88,-0.0168333805329758,0.0019655638867546,0.0043121059768921,9.71459380579368,-0.545022417062887,-1.45984148131778,-0.0119798346853826,-0.002708745409891,-0.0095638229469249,9.59625831565357,0.961785806016982,-1.83361410814847,0.0095061494258257,-0.0509336166210196,-0.000845405587091,9.61922529617037,0.681513256359856,-1.66303238118722,STAND
0.89,-0.0214761107355879,-0.0041668695807279,0.0030923757375192,9.6410654020701,-0.597646388463487,-1.50444681218348,-0.0180574462001795,-0.0118673056659852,-0.010069378999366,9.55113169599657,0.91990914798268,-1.91328792601732,0.0218172751941131,-0.0485988286571124,0.0024138966460674,9.64919771154008,0.728842062236439,-1.71423006043016,STAND
0.9,-0.0079102965340069,-0.017847930975445,0.0070647023565825,9.59377810868218,-0.608075276271567,-1.60357598549508,-0.0164987364855068,-0.0102805187107446,-0.0114968612086389,9.55169136650293,0.97185554393651,-1.93469376284165,0.0340477830499243,-0.0477873390208872,0.0056403575078628,9.64774602196182,0.727093387635382,-1.69469417128004,STAND
0.91,0.0195528586055693,-0.0244103691450348,0.0046430861500239,9.59382713927205,-0.611532141460514,-1.62981665828449,-0.0180155467565307,-0.0133328111008604,-0.0116532614779508,9.57353189786049,0.945199713883423,-1.88774846286942,0.0384154824323657,-0.0511354713970271,0.0086895630935869,9.70001967681527,0.747408894639058,-1.77087458422026,STAND
0.92,0.025549944407244,-0.031916811494075,0.0081878538449674,9.61757383367123,-0.64009266158137,-1.65335197475419,-0.0210638567653294,-0.0148621193162866,-0.0117873293907406,9.57400859655391,0.99728429884856,-1.9094020588511,0.0413414253980458,-0.0528774199028946,0.0117507942510647,9.69854450666132,0.744848439215245,-1.75182600213002,STAND
0.93,0.033212518967922,-0.0337860574234215,0.0037800055006545,9.6433639868361,-0.598816830205988,-1.70995579578809,-0.0257490954789572,-0.0165738568378773,-0.0073856312533608,9.59966373713197,0.927627916566403,-1.93954950073326,0.0325246321928724,-0.0462893585530902,0.0117678778329834,9.67472996672498,0.747395680581788,-1.80621416774361,STAND
0.94,0.0331751995646332,-0.0335212524908889,0.0083502468959329,9.64119919863946,-0.645636561329106,-1.68312955602576,-0.0167464537207436,-0.0137509200363907,-0.0009468543124737,9.57377548202913,0.926440834033202,-1.91767737229373,0.0232231349209372,-0.04742476295974,0.0177541654504974,9.67137933848122,0.721206696237549,-1.81186151367535,STAND
0.95,0.0240782302976674,-0.0273290546523715,0.007911207461661,9.66325992098542,-0.606209751737454,-1.54276273276694,-0.0182412872719977,-0.0014314034607117,-0.0035507692449583,9.57244097238688,0.925060087318862,-1.8939325310601,0.0052203866411297,-0.0418112926417201,0.0145940709483389,9.69435734470916,0.715904886480424,-1.79138579367164,STAND
0.96,0.0212031991820138,-0.0153757732811627,0.0026058446184698,9.71267185380796,-0.586717561472182,-1.57085662416429,-0.0090453069471672,-0.0120935762356436,-0.003752020004016,9.56978050360245,0.946135248077168,-1.84390579751431,-0.0114411878442562,-0.0393526228753983,0.0129242472219913,9.68848518595881,0.666114530208023,-1.79710001492432,STAND
0.97,0.016726993607754,-0.0028734744299358,0.0064253603665012,9.6638874639996,-0.559311699994452,-1.5511154184767,0.0063719592418146,-0.0133534186454353,-0.0095420122329829,9.54858652909803,0.952527449048244,-1.9192117339929,-0.0280208356950025,-0.0353692760190747,0.0112861238991113,9.68674110982868,0.663601228677115,-1.75180322306778,STAND
0.98,-0.0091697036603994,0.0034131056880722,0.0043082987967318,9.66174221005504,-0.572769100506612,-1.4512563861159,0.003391287853949,-0.0132370779999995,-0.0126637881896573,9.59617703445364,0.903039959935746,-1.89773591070127,-0.0349750751736616,-0.0241575461279522,0.0037721048463506,9.68364247396623,0.639168990373948,-1.75538918025344,STAND
0.99,-0.0108190937911048,-0.0056208568575683,0.0063491224090367,9.66401155440902,-0.533168057365153,-1.52981399588144,0.0047783165116338,-0.0150016870958888,-0.0065905574934894,9.57224843733865,0.954414389938277,-1.92074880053185,-0.0328579831316492,-0.013549043687399,0.0024601261190627,9.66169328670229,0.666364353519734,-1.75654628006448,STAND
1,-0.0107403653761508,-0.0012287032135914,0.003036903237144,9.68735803662625,-0.612390624200576,-1.56976757566128,0.0184495254938881,-0.0058887551445882,-0.0043768497967203,9.57412932089255,0.982914924489942,-1.96855539827116,-0.0291641118277288,-0.0029417665031093,-0.0034191859688037,9.63934463771728,0.692985495058174,-1.73228232884599,STAND
1.01,-0.0061731823059028,0.000510565865127,0.0075606260677542,9.61505693385126,-0.646742618185512,-1.66535916167422,0.0139110384887756,-0.0073611870032276,-0.0060703810818758,9.57279582541855,0.98116966946284,-1.94503807558937,-0.0243283962868228,0.0014075498760971,-0.0048157782550875,9.63667614283601,0.669591314753404,-1.73310419203628,STAND
1.02,-0.0001400807106588,-0.0105741539522705,0.0021420446870982,9.59112234069479,-0.62237678858261,-1.66913366157586,0.0076942164441222,0.0031837540901197,-0.0027468859282223,9.57156081925757,0.979457331891369,-1.92103315128566,-0.0198215603147446,-0.0003367288115873,-0.0063291367076007,9.63664808279447,0.670510867803768,-1.73290468856748,STAND
1.03,0.0104618994779689,-0.0132948783433643,0.0100332807296122,9.61491047152307,-0.620750722439444,-1.64555597479451,0.01677332902733,-0.0046065021014268,0.0017441104376074,9.56959077664314,0.92675141199676,-1.87642900605744,-0.0154496076602094,-0.0036873618454635,-0.0032889259111061,9.60969068044062,0.649669019509698,-1.7343859805506,STAND
1.04,0.0212021501388292,-0.0120672809238385,0.006995121355339,9.66420798501123,-0.628585783150917,-1.69428589400578,0.0030172600085082,-0.0000547781036689,0.0015968903896309,9.59412358274275,0.902151342976494,-1.87749584740802,-0.0106317196910109,0.000634834610744,-0.0031567533723195,9.60964326102773,0.650204910844313,-1.73444789334435,STAND
1.05,0.0227674794734722,-0.0090376938236996,0.0068316635406812,9.66345638792848,-0.596854722490309,-1.62526606157389,-0.0015157035591906,-0.0030528685799179,-0.0001559521707959,9.59702737789978,0.980839251175279,-1.94484828418915,-0.0093542141713132,-0.0040182644924553,-0.0032312283916436,9.63854371396725,0.695658524557183,-1.70779588642867,STAND
1.06,0.0197731963709747,-0.0028216790425854,0.0079724061309125,9.68831039942673,-0.574217808633846,-1.62811372666162,-0.001540753852723,-0.0061631403256527,0.001248656626515,9.57060751648426,0.928218215475513,-1.90163757502522,-0.0065352492044962,-0.0087260336880846,-0.0048192711395262,9.68543682443594,0.668436112728539,-1.75716825878493,STAND
1.07,0.0153040963219797,0.0046670625518689,0.0044399433890103,9.68695546489342,-0.593639820959409,-1.57659227241989,-0.0092402952661946,-0.0078213722766312,0.0040561898398093,9.52287347295728,0.929821449452242,-1.92888283746805,-0.0083455509204178,-0.0118866163385889,0.0058011456706408,9.66528506402072,0.698105545316982,-1.83079553047863,STAND
1.08,0.0076508310349309,0.0048417842473976,0.0058946695238598,9.68684890843569,-0.564369843506664,-1.53042233797052,0.0015536801137828,-0.0076230151064183,-0.000263412993402,9.59572888713841,0.954300270481438,-1.92420086468502,0.0027617761663461,-0.003409072756265,0.0106631514139997,9.66464736782597,0.696463434174742,-1.80712397975259,STAND
1.09,0.0091583886036032,-0.000013247918509,0.0016058749796698,9.660677443232,-0.637035182503101,-1.52203628005045,0.0015536681879281,-0.0076230079587733,-0.0002634137870706,9.52241970618272,0.95404834192288,-1.92840803727387,0.0063372556836758,0.005622274940634,0.0078149112773345,9.66528711193115,0.696384709486601,-1.8314399652871,STAND
1.1,0.0121848336739204,-0.0014812018080622,0.0032459160325338,9.65923801006733,-0.713011457548872,-1.53773152144902,-0.0076689120757726,-0.0000729796814373,0.0013439831418933,9.57340933957306,0.95806350542761,-1.97506288837595,0.0051897675635058,0.0132663208859448,0.0110049802452878,9.66815394467453,0.719623227136438,-1.82961722941521,STAND
1.11,0.0121289694881651,-0.0060508037272974,0.003513804578224,9.6346050316315,-0.683011035039607,-1.49281527075694,-0.0076439705597173,0.0030373979398306,-0.0000603905940725,9.54580153228235,0.927963001259016,-1.90498412546092,0.0025711687865,0.0210774354565267,0.0095971877267961,9.64259032683796,0.718524601040204,-1.75527334114527,STAND
1.12,0.0243372773464397,-0.007711362289381,0.0037128765499703,9.65984752702798,-0.662809062497171,-1.52001703090596,-0.0030586716487023,0.0015199840355338,-0.0000121542121178,9.61855127063974,0.829037848220816,-1.88461972836555,0.0026888567730999,0.0226568597282084,0.006571525988741,9.63983195651126,0.692552497479569,-1.72974196991811,STAND
1.13,0.0212807199568687,-0.0076769424797969,0.0036856057775908,9.66080881656068,-0.672132593061944,-1.59333388296955,0.0075454178078544,0.0044677159972838,0.0034091263961028,9.61747743373817,0.826908062312588,-1.86003915515084,0.0040834800243081,0.0195828473603933,0.0034714013622404,9.59902997105313,0.769183215236722,-1.7014361708638,STAND
1.14,0.0183061339558965,0.0000634282999756,0.0047330373344503,9.66048843859668,-0.699970208929463,-1.61494110814316,0.0166944260372661,0.0075332155513128,0.0037458472753287,9.59454937299138,0.803840671039266,-1.88694460246236,0.0021473925093812,0.0120486875822324,0.0033080774224208,9.57563692311549,0.772350590686234,-1.72480949951796,STAND
1.15,0.0107132378786668,0.0031058823989617,0.0029620158469947,9.68678526351718,-0.571297548861255,-1.55588965083538,0.0121717769625538,0.0014852391652777,0.0018736108596243,9.57485857859624,0.810888898128489,-1.98503119292131,0.0005591909423848,0.0106362442390424,0.0017356811776557,9.57906606316428,0.797229983162637,-1.74717589878966,STAND
1.16,0.0000781156374815,0.0094097324816054,0.004030075031719,9.6625952388525,-0.601170370891668,-1.60129670983329,0.0153021004798722,0.0000850361565769,-0.0011623229997523,9.59123306238132,0.7972626851789,-1.81372738379887,0.0013322606748477,-0.0017739448879718,0.009151965127625,9.55434193660196,0.798456999252705,-1.72284856492453,STAND
1.17,0.0000781466350721,0.0094097368268751,0.0040300812432517,9.68735629248444,-0.574994595383081,-1.57858110476558,0.0168164121745233,0.0138736002005861,-0.0021136626124129,9.57104171016823,0.877706282096385,-1.90587982632309,-0.0049644232873244,-0.0045438887544284,0.0120880242950191,9.53010812161254,0.800132238464685,-1.72361556110395,STAND
1.18,-0.0060586185625292,0.0096596135663951,0.0070215462163202,9.66000273608334,-0.608991318060837,-1.45116834586192,0.0228416371052963,0.0060790560031565,0.0023068563873872,9.49871059217284,0.951999545132047,-1.92719614977034,-0.002477212082485,-0.0153465708093994,0.0103822264808147,9.60017674605366,0.766889404286975,-1.72405184302805,STAND
1.19,-0.0106725475407393,0.0032583004211031,0.001246556354398,9.60945176268316,-0.680869433311312,-1.44286930947398,0.0153726526583064,0.0109394915828501,-0.0053183607610184,9.54780464343639,0.927598141835405,-1.92613816365298,-0.007160044603092,-0.018059548220258,0.0056948833917293,9.59845378940269,0.743735665445582,-1.77535080227179,STAND
1.2,-0.0138355553376919,-0.0042325984100365,0.003191235318412,9.68287148044671,-0.65546019218796,-1.42029882482764,0.0153327797253441,0.0016697989651817,-0.0026250777256701,9.5455796106785,0.923887206763146,-1.87705298432637,-0.0054528374081312,-0.0150680742912297,0.0042414696694333,9.59290678661704,0.694867384758673,-1.77879682967391,STAND
1.21,0.0075923057560943,-0.0030434791267101,0.0017718882972863,9.6833171145836,-0.688523011697773,-1.4905283284307,0.0076582328616031,0.0031226462251646,-0.0012238877581951,9.56999290038149,0.923938669924733,-1.87576512466222,-0.0041775082013023,-0.0197217584156473,0.0041667767614334,9.61689009849555,0.69188416344655,-1.77996759316008,STAND
1.22,0.0198077124764145,-0.0030929357532419,0.0034056664259696,9.73327213277819,-0.641618560152679,-1.49558955417854,-0.0030838966438745,-0.0015896322119502,0.0013923298047285,9.61433168729311,0.892138775640587,-1.77801747582022,-0.0010294683448876,-0.0183371726256131,0.0026978309443831,9.61336717018272,0.666452350887263,-1.75834081937852,STAND
1.23,0.0290920316051999,0.0059412585824157,0.0029488655532887,9.70886934351561,-0.641735272129079,-1.49573525188022,-0.0137610360670672,0.0060771800926142,-0.0000918226350493,9.64072863866822,0.944781586232868,-1.82140658935525,0.0098378318326213,-0.0158185393337226,-0.0001977908271765,9.61948324941341,0.716548739213138,-1.80689275984251,STAND
1.24,0.0185278495271713,0.0117040018602511,-0.0051248811473298,9.68521097182165,-0.617192025384514,-1.49805103052812,-0.0321689562438296,0.0105027652200091,0.0026962688647142,9.59594104695004,0.901933881326034,-1.8994544011724,0.0118762480047479,-0.0067334945799418,-0.0015329764955186,9.619827025313,0.717328658118526,-1.83244667109708,STAND
1.25,0.0199641711226568,0.007388943434705,-0.0002702984610211,9.61366716622622,-0.627132101342472,-1.5953006427283,-0.0229153140763546,0.0045369136286349,-0.0003704890954177,9.5707216667117,0.876015746880785,-1.87724468758924,0.0150203288470828,-0.0039651981893447,0.0046658683016673,9.59812432377885,0.743849955090842,-1.83256554645203,STAND
1.26,0.0183671244731022,0.0029277494172132,0.0015102934586213,9.58812934813702,-0.675409663644585,-1.58935010606173,-0.0168561194696296,0.0075377305056379,0.001419437196541,9.52206796681505,0.876175326738236,-1.87883553657346,0.0133169120237848,-0.0083407833745555,-0.001547949446717,9.59747212336262,0.742554459151051,-1.80886971495317,STAND
1.27,0.0074736594158523,-0.0104764452878354,0.0052738558803528,9.61473092415596,-0.549518740149403,-1.55517274893756,-0.0152607154066581,-0.0015506076374069,-0.000426477563053,9.52346387005926,0.854008086596191,-1.90463153277082,0.0127334107576117,-0.0176197486110565,0.0059147772853705,9.546624883319,0.724075579455354,-1.83643838373462,STAND
1.28,0.0074899912572767,-0.0122723960938961,0.0007948145467494,9.66357773827341,-0.523904333082405,-1.53399594489226,-0.0044383041667143,-0.0089783541496403,-0.0050418142434599,9.54789974896376,0.83019968492933,-1.90579108282594,0.006455212179432,-0.0203600479606432,0.0073282463579406,9.54312985412621,0.698134842282141,-1.81486314426346,STAND
1.29,0.0060143258550329,-0.0059804264564162,0.0034646405958637,9.6612315561054,-0.594008028314897,-1.50191218215491,0.0062534457505179,-0.0104853869802599,-0.0048455137212196,9.62268820002237,0.735469678874628,-1.93518524394846,0.0015856103900466,-0.0261478579869425,0.0041144078557003,9.51317921231954,0.651683142867006,-1.81941483542792,STAND
1.3,0.001395197277799,-0.0106793036385301,0.0006490185410617,9.68549788829081,-0.594822005616362,-1.5022553541342,0.0168673246436805,-0.0105870295822254,-0.0015413594948257,9.59656836574109,0.782229824916472,-1.90931834556154,-0.0047253056175103,-0.0303285501458899,0.0009169069038112,9.56014716307233,0.644370206051224,-1.77244275701014,STAND
1.31,-0.0046233560425676,-0.0029936518865592,0.0001403490926832,9.68356933981886,-0.667537393560979,-1.4942324678135,0.0290997796520521,-0.0059305456725287,-0.0025950911950743,9.59223077198167,0.873612833777881,-1.82973657715455,0.002643796842214,-0.036702413467163,-0.0067717144576626,9.62806496024405,0.589914463406199,-1.82501879041494,STAND
1.32,-0.0030453427352914,-0.0000559749939482,-0.0015506243100714,9.68439860499173,-0.616037016173411,-1.4759627092021,0.0229656993621753,0.0016845615748087,-0.0024432902858041,9.56645437607994,0.895727217160448,-1.80512034568258,0.0092188525696969,-0.0293093922642267,-0.0126844494001586,9.62740462443944,0.590742685140526,-1.82823152420309,STAND
1.33,0.0168167882472538,-0.0018977602562288,-0.0028050794525189,9.68307248979983,-0.721588518736381,-1.53713122142015,0.0170256132581255,-0.0041887929589356,-0.0089232760941572,9.56815372700496,0.972729112951318,-1.84836427045398,0.0246865813023798,-0.0269872908966076,-0.0186082170660452,9.6748192460618,0.585735605415158,-1.80583003181859,STAND
1.34,0.0199877449321147,0.007205918319451,-0.0033226512633185,9.6838722562085,-0.727400824196692,-1.58521513195977,0.0231928061588599,-0.0010086072940758,-0.0117080837704943,9.54325907808734,1.02193469835454,-1.8461938504404,0.0299360371133128,-0.0150225034951199,-0.019866687245857,9.65320639898317,0.614884060431063,-1.83190302705119,STAND
1.35,0.0306945045784991,0.0086980965784815,-0.0017941623309291,9.6371622953769,-0.683813181221277,-1.63943216356219,0.0138550113987942,0.0078884063873293,-0.0054750571653962,9.56549788095574,0.994383324102801,-1.79814885839382,0.0361807850523493,-0.0123352973264589,-0.0182306920509375,9.65184110822284,0.614396457416958,-1.78463933911104,STAND
1.36,0.0337444189312935,0.0070486544144385,-0.0031984494304519,9.61434915485425,-0.607922249936166,-1.62341192909809,-0.005931643913608,0.0018089564156194,-0.0077083582764685,9.54477824604293,0.97617696649873,-1.8737123531798,0.0453234887115897,-0.0128333512423433,-0.0181547080190847,9.60823948320657,0.669234724867743,-1.78510740532427,STAND
1.37,0.0320719208007198,-0.0035036087867991,-0.0010488144047317,9.61583341275711,-0.532625351164444,-1.60758294667956,0.0002281173774221,-0.0026954876660687,-0.0092637297777868,9.54658414990369,0.88156859199302,-1.90557536889481,0.0498328769844191,-0.0131876638054819,-0.0120052051332798,9.61102872339899,0.694928520324781,-1.81018359489761,STAND
1.38,0.0304490356821838,-0.0111014430899164,-0.0006040518252307,9.68930281746209,-0.537658038164659,-1.63102807952747,0.0185704891719118,-0.0087595733444652,-0.0090625002430854,9.57230824610221,0.835569574762079,-1.93311882051197,0.0471141870427366,-0.0069280895097601,-0.0119190917416983,9.59224095057624,0.747183529477821,-1.83452944232374,STAND
1.39,0.0135904977812713,-0.015571448779065,-0.0020028597898318,9.66432045230276,-0.534387856561216,-1.60840731520874,0.0109965997739463,-0.0240267375587202,-0.0098321069729632,9.62087496204233,0.812048996164859,-1.9343717009041,0.0424660651489489,-0.0068084877025931,-0.00431671629615,9.62157320983557,0.793013466525425,-1.83339784523965,STAND
1.4,0.0166894901500892,-0.0142678499828593,-0.0051138584979304,9.63956931616469,-0.503601567345895,-1.56468034231272,0.0261846415748624,-0.022587313541554,-0.0063631534665461,9.59748886758821,0.913491087598736,-1.97905385278478,0.0305219570200508,-0.0015767707880115,-0.0043350147629684,9.646703301436,0.79173533171374,-1.88248541489388,STAND
1.41,0.0166292425436676,-0.0171289269255547,-0.0018831853099903,9.6374163264954,-0.633532664093019,-1.6240744206214,0.0383489177021634,-0.0103597651583918,-0.0056072247935588,9.5506099031186,0.916961789165087,-2.03185898718394,0.027772360019302,0.0046321663876107,-0.0011973860992098,9.6740890643078,0.813872507083221,-1.90571874646306,STAND
1.42,0.0120626113159157,-0.0155539318375651,-0.0020157433094568,9.61048757550364,-0.67260351962376,-1.54739150714913,0.0430054199500092,-0.0117579193102924,-0.0086064513708949,9.52346902015634,0.937323567946204,-1.98394591337436,0.0295730143326303,0.00916999682394,-0.0041609852153439,9.67779967889072,0.839429960224917,-1.95323565823457,STAND
1.43,0.0197805817505312,-0.0095483788200035,-0.0023187964290751,9.61066173898012,-0.675604581690814,-1.57272165861666,0.0445609231234725,-0.0101709823128464,-0.0100371491893164,9.54583005363917,1.00863039518645,-1.95440407769,0.0272488345251427,0.0230220213417404,-0.002421980911789,9.71989914214391,0.783043126291072,-1.87958659892927,STAND
1.44,0.033609473264634,-0.001903183192349,0.0003838513233582,9.63392481251555,-0.667575464434955,-1.49997811083956,0.0461100642709636,-0.0070590683794133,-0.0114107353622173,9.57067279880979,1.05941071527884,-1.97519229506583,0.0184342054630626,0.029611375403678,-0.0023941650552775,9.67133998551822,0.787340593746514,-1.85363513266737,STAND
1.45,0.0322390860670796,0.0119141228236641,0.0010584656223017,9.68446396887814,-0.653949046287507,-1.57408370253896,0.0383813681046754,-0.0010908151376752,-0.008311586851469,9.59148915357561,1.05414221054663,-1.90193204094088,0.0108499551971481,0.0314744404968283,0.0021504602656445,9.62235633765899,0.790799831031489,-1.80284333744578,STAND
1.46,0.0414896224666598,0.0161927013761959,-0.0021868242492078,9.66315542147011,-0.59020807557607,-1.65452440038196,0.021487199400669,0.0063807861677425,-0.0053706393110993,9.59279926605994,1.03170744834599,-1.92813007231107,0.0122415105343819,0.0283934835124349,-0.0009433788935481,9.62027917003703,0.766274861453742,-1.80087941989299,STAND
1.47,0.0337119602236784,0.0073286798370491,0.0013523340263821,9.58978028634858,-0.586140019535818,-1.63023137391534,0.0076198495807711,0.0030690318687647,0.0002920687928296,9.54449709727659,0.982741260516078,-1.93373739925731,0.0090308496533737,0.0269140899186288,0.006643211969244,9.59601070745819,0.76767478180085,-1.77433861532167,STAND
1.48,0.0137913313727386,0.0046012421927688,0.0028869143069347,9.64179869863756,-0.496945777630966,-1.68907451910082,0.0061541512716326,-0.0029786717126078,-0.0014948143048977,9.52225350994352,0.862635659491144,-1.96831947686734,0.0046399826646143,0.0302330364188995,0.0051260143193636,9.57229544668814,0.76962756375311,-1.77209063151743,STAND
1.49,0.0013365763576391,-0.0135356244115171,0.0039032207452477,9.6402655949276,-0.485389056974554,-1.59256364088191,0.00168700096486,-0.0043444725243062,-0.0062318566166541,9.52461114721845,0.842216197958858,-2.01915247982325,-0.0016194421848563,0.0275164807163426,0.00501901831674,9.57546958354944,0.793373944136544,-1.76851533263444,STAND
1.5,-0.0094049617820862,-0.0147492431853322,0.0069488867442166,9.66299153762765,-0.474393818353992,-1.49661404245192,0.0076774944112027,-0.0106576993280882,-0.0002179320201442,9.51992299388116,0.835161548425695,-1.92262535984012,-0.0017669460543151,0.0244935598964829,0.0034398325047972,9.5754215891685,0.792228792994621,-1.74161582012346,STAND
1.51,-0.0124964751869921,-0.0194712079946508,0.0041571524478085,9.68555448006344,-0.520767921627087,-1.46768892588111,0.0091815739953508,-0.0137611494320906,0.0012289620175522,9.59244462187245,0.88400619776891,-1.91683411128203,-0.0047153537629664,0.026206590520273,0.0019093330035405,9.57643128612887,0.79279994030714,-1.76355846381914,STAND
1.52,-0.0108921632329636,-0.0133968474787577,0.0037960391131522,9.73203442382596,-0.621982941732021,-1.48077985485982,0.0076678004468519,-0.0168153473547069,0.0010804692908251,9.61614058189096,0.932547269692174,-1.91363192656824,-0.0090057618228345,0.0310735974076108,-0.0011120574204421,9.60120535202723,0.790240913825523,-1.76029359007806,STAND
1.53,-0.0015313952511604,0.0017279526585596,0.0029395419418433,9.70432348688923,-0.682350994916752,-1.37593794751359,0.015351146482809,-0.01210742516059,-0.001622245503253,9.64095787564984,0.982976856376363,-1.9347170295241,-0.0150834765748637,0.0314286227752565,-0.0026985873079066,9.64502371480722,0.73683626556871,-1.75791099531808,STAND
1.54,-0.0046264618502929,-0.0012830116950397,0.0031003269431757,9.68094175194508,-0.691026668974696,-1.44903729782057,0.012129509671436,0.0029676660351787,0.0034437271914931,9.56730778188522,1.03095453357386,-1.93507882928262,-0.0194729491006339,0.0347481010870515,-0.0042187612333132,9.60229345689771,0.791271100829312,-1.75388401313468,STAND
1.55,0.0000839343315812,0.0077084602128719,0.001055795603098,9.63355520648087,-0.702053041974062,-1.54648906454373,0.0091432007211215,-0.0046095602630394,0.0015675445633514,9.54049497634678,1.05112789020047,-1.88595493297573,-0.0190626701709521,0.0423658714716196,-0.0040868698633284,9.62022052862131,0.738497984241692,-1.67803849138842,STAND
1.56,0.0001788286094404,0.0153231855869562,0.0005885346828477,9.63216509292943,-0.747587202124017,-1.51518234565307,-0.0091368523702901,0.0030843235474866,-0.0016237033807518,9.56811525234564,0.933123502316282,-1.94252594306373,-0.0148379723507053,0.035999364738929,-0.0026177910124756,9.59835321487732,0.74410928706658,-1.74782678828508,STAND
1.57,0.006277360961982,0.0120198339271408,-0.0022176271589372,9.58548988256281,-0.703983294902238,-1.56911626195474,-0.0198510074144286,0.0014762890603759,-0.0004024980080418,9.54325640993684,0.858533831155341,-1.92437934009678,-0.0148752399185657,0.0359499679864085,0.000438201799979,9.52557847935452,0.75159731671724,-1.72139562495355,STAND
1.58,0.0092364543446218,0.0060806947606572,0.0012292121724792,9.58816612022752,-0.637381381964703,-1.62560913345926,-0.0243480648321017,-0.0014721728441121,-0.0036700349623536,9.54455915090409,0.836619906867465,-1.95031580641004,-0.0076155676504093,0.030817291103664,0.0096053341536963,9.55751515811015,0.799572875702781,-1.78908400484404,STAND
1.59,0.0061032737203317,0.000023916389673,0.0015766770406442,9.63787209603326,-0.587313882890953,-1.60616258590081,-0.0198861108957069,0.0014192753645019,0.0011222433757192,9.52168500600142,0.790178505961849,-1.97920375485391,-0.0077358997578733,0.0292439949492219,0.0126343764903967,9.55752761950874,0.797850534388765,-1.76175903521506,STAND
1.6,-0.0046271492541866,-0.0012826255499262,0.0030995083267509,9.68655125038649,-0.558449679106379,-1.55989888556785,-0.0106635435635529,0.0030810234493412,-0.0016580918810905,9.56623996908977,0.7591138469622,-1.88114406203226,-0.0078567726303954,0.0276705888532597,0.0156633351525131,9.58503242036638,0.818246301350157,-1.75758570463224,STAND
1.61,-0.0030873897064462,-0.0013940198672806,0.0015898468874986,9.68712527171103,-0.53439375231957,-1.56303824965296,0.0015073292034281,0.0045794174456835,0.0002057184881625,9.56589731864844,0.807960630171418,-1.87711170061899,-0.0063331063624223,0.0275877575784825,0.0156803267259966,9.61191267621499,0.837675066231124,-1.7290862279393,STAND
1.62,-0.0092589203734203,-0.0058926947167733,0.0018169819406098,9.66230049969726,-0.530905938392521,-1.53962393721187,0.019758626396115,0.0121937972830412,0.0024383739741856,9.61738200893523,0.910720244919804,-1.93984062365145,-0.0013105466180766,0.0350065437982261,0.0128110990028269,9.60794077966377,0.788660393303771,-1.75216870318329,STAND
1.63,-0.0245479405093296,-0.0040066815131125,0.0046362757855118,9.66134279882315,-0.58239647287745,-1.5584540944549,0.0258295040827714,0.0121520587291379,0.0041045909892822,9.56826157356339,0.982762313391546,-1.93572476900127,-0.0041731952273782,0.0382449817314783,0.0113035634907977,9.63293970911709,0.78489338311364,-1.74807477531813,STAND
1.64,-0.0259889443993994,0.0020091526082237,0.0027267371761448,9.65947640748919,-0.655031088465662,-1.54976816531107,0.0197424351063194,0.007561474099056,0.0037930970198697,9.5633809628373,1.04774606968171,-1.8323162905124,-0.0129868820894344,0.0434152864121503,0.0051696114750996,9.6337172700273,0.784249722721801,-1.74407417267558,STAND
1.65,-0.0229155141525942,0.0052066747248826,0.0056133753697013,9.68188229198775,-0.667923150439186,-1.4492677921903,0.001398975024292,0.0136178431771695,0.0035910417044222,9.56453916541308,1.07335286010449,-1.85393600310899,-0.0239215512447324,0.0394023494085918,0.0064916304647367,9.62721468272811,0.733074553996088,-1.66851604800464,STAND
1.66,-0.009048396559618,0.0108600033497814,0.0007925307263397,9.65792926458111,-0.670413732316762,-1.47325375439634,-0.0183976209831628,0.0105759097215172,0.0014899100234343,9.53987858545247,0.998300820746752,-1.83491368465128,-0.0302854465003737,0.0351397344078397,0.0078652415736398,9.64950993086203,0.705918335328366,-1.66503133737939,STAND
1.67,-0.001359200196135,0.0154337790793229,0.0021042307890879,9.6820093810533,-0.72544229950268,-1.51411643814795,-0.0305035488545581,0.0107165493498805,-0.0033696541669699,9.51741815140053,0.927497271768258,-1.86454106176864,-0.0258797845431549,0.0318427502970908,0.0078651422897366,9.57802052624126,0.714440021710395,-1.68775642904468,STAND
1.68,-0.0074699680386731,0.0137952482571904,-0.0009033095712769,9.63366968063862,-0.6971049151812,-1.49233673887056,-0.0259406376363533,0.0060951415702349,-0.0019075909013923,9.56961067257809,0.810425064748044,-1.91889377001805,-0.023080638436686,0.0271054687785191,0.0078186228239703,9.57926227508666,0.714929082804393,-1.70914876791581,STAND
1.69,-0.0045202363955987,0.0062380587929187,0.0011110226282922,9.63638879830937,-0.630292599267359,-1.54876089716059,-0.0198702168909323,0.0060529051557868,-0.0002395322029967,9.6186954939897,0.786857961430689,-1.91764858909337,-0.0202382891657252,0.0224200209590815,0.004716222760504,9.53120907632311,0.720034056368156,-1.70782193969069,STAND
1.7,0.006075776331189,-0.0031167153152023,0.0002402894263279,9.63604349642876,-0.627397201244239,-1.52437592908034,-0.0107621264270278,0.0182768593191564,0.000432200303389,9.5690164264331,0.7850758092162,-1.89434315336304,-0.0159984110501928,0.016075464813358,0.004659552188228,9.50801069700172,0.72340246620202,-1.73085084616117,STAND
1.71,0.0091479646082612,-0.0049543630823347,-0.0042088765673368,9.63806477345505,-0.614993959915396,-1.62459957545693,-0.0001645857822066,0.0135550652983082,0.0050868612185945,9.59197201812913,0.856234866913298,-1.86182914639005,-0.0129729822267167,0.0158820954162821,0.0062253985070187,9.53593674251925,0.745558752209817,-1.75209632437846,STAND
1.72,0.0107035356388315,-0.0018328807066275,-0.0028578572595482,9.6863602073687,-0.582785788893893,-1.55427438625008,0.0076008553665962,0.0076443409073863,0.0004664146753747,9.54227409149249,0.853835176520674,-1.8388427312786,-0.0097985447033344,0.0172911036034356,0.0032367491326004,9.58407437875283,0.739120539824999,-1.72481757894682,STAND
1.73,0.0046276153891367,0.0012835926117885,-0.0030982549285582,9.685761800992,-0.606841616134154,-1.5512873382609,0.0137195791423467,0.0046084729293519,0.0004974323258513,9.6157523633712,0.829597339852263,-1.83669065248666,-0.011548764223713,0.012830720034445,0.0016037771857912,9.55815540898006,0.718338051584591,-1.74921743709593,STAND
1.74,0.0045510855030455,-0.0048083045176823,-0.0027263272224598,9.65940042957807,-0.648559424386378,-1.49746732864431,0.0045815548381407,0.0169028039756334,-0.0023138432348592,9.56865803429537,0.930317459497723,-1.87941869741919,-0.0053391209647797,0.0169074490201358,0.0109340241445362,9.60218458532432,0.685742892729561,-1.67425333785701,STAND
1.75,0.007703798158036,0.0027713938444849,-0.0031642031682858,9.68441800571411,-0.624702994724212,-1.50006279478829,0.0076536353764045,0.0123344505108541,-0.0024116251624004,9.59214259100121,0.928721039799521,-1.8525923624599,-0.003981415842881,0.0137767457152816,0.0108958381171855,9.5998640276903,0.660520736559571,-1.67367052397565,STAND
1.76,0.0077533874149049,0.0057239609512921,-0.004873434548312,9.65912968122907,-0.645111165404675,-1.47283717304326,-0.0014692662673102,0.0123694306164401,-0.0041551490074103,9.56952234877852,0.881993697969817,-1.88055673827662,-0.0026843698812429,0.009149058294742,0.009300971502376,9.60349858833322,0.68470846351539,-1.69601324683803,STAND
1.77,0.0108639726055798,0.0119676641076559,-0.0021724489870354,9.70748154949859,-0.670250840649768,-1.46807093615429,-0.0089778285052147,0.0002630778742481,-0.0078416423294981,9.54540921645845,0.858200846538911,-1.88289462935877,0.0030626418024817,0.0012758603994461,0.0046514090230097,9.5570510367725,0.712798630010419,-1.67145340844786,STAND
1.78,0.0078223960156858,0.0101991650521662,-0.0066759790049947,9.68266233496774,-0.693624492122956,-1.4643953691015,-0.0029145682414177,0.0017462716109598,-0.0061138861876272,9.59719819788525,0.913393489036961,-1.94972148563289,0.0027299713412379,-0.004818070805563,0.0045358199731987,9.56381383420394,0.76251180021145,-1.71857495027463,STAND
1.79,0.0015898225422362,0.0028413197589052,-0.0032188431770342,9.66118666243292,-0.598749953328714,-1.50031718701957,0.0002209726763546,0.0080263768773517,-0.0103861025885799,9.52522081067162,0.915669226404855,-1.9770742758946,0.0008580669197469,-0.0122718170442578,-0.0002114208806526,9.5920406218862,0.785540076032451,-1.7666376839368,STAND
1.8,0.0244690997088256,-0.0003723785012898,-0.0013012196034699,9.61376040959384,-0.579374462996667,-1.55244204121023,0.0031751515753611,-0.0028711769799294,-0.0046136027555941,9.57186652940475,0.888600546512285,-1.92768228738551,0.0007748469528429,-0.0137952857308647,-0.000240232584776,9.58915062652881,0.761295859149201,-1.76881583982949,STAND
1.81,0.0365928925080278,-0.0130703138942033,-0.0065347131840546,9.66188113208638,-0.604804967684915,-1.54903909097003,-0.0090176177752047,0.0094135948276029,-0.0075005977638287,9.57187574684587,0.889236632185437,-1.92734320118157,0.0019368735185896,-0.0185824147409312,0.0073315888550679,9.56871859210474,0.789561930793252,-1.81885187152537,STAND
1.82,0.0288893111954659,-0.0158412330925424,-0.0033699135151994,9.63885679621064,-0.558843441194796,-1.58089622571249,-0.0014807162467942,0.0062114101275264,-0.0028576609512331,9.54600157335573,0.93656656027976,-1.89976414568553,-0.0023621720077748,-0.0137333729486511,0.0058326466649693,9.61220372693282,0.756772018485187,-1.74692478343556,STAND
1.83,0.0198384808473342,-0.0049825440853497,-0.0025865890893653,9.66420503050188,-0.568533711089174,-1.65400212038027,-0.0075799823065399,0.0046701474928827,-0.0030617980109454,9.56718733332508,0.90722708043027,-1.82689531712619,0.0022257180607794,-0.0125417323921365,0.0105022583498453,9.61540509617053,0.781086892789591,-1.77165606714829,STAND
1.84,0.01222560418438,-0.0034675189810391,-0.0042718269698976,9.63866111637303,-0.558864767167419,-1.5820812591272,-0.0214439124994735,-0.0001709482400168,0.0025331756980225,9.64133006227053,0.934081253505951,-1.84550803723899,0.0007633342150889,-0.0109606338029651,0.0120398918681317,9.59298882589025,0.806069375552588,-1.74809545780578,STAND
1.85,0.0030008472248903,-0.0046032485020503,0.0003098518681208,9.63595740262333,-0.595160300802171,-1.47951307678198,-0.0275594644012436,-0.0063452574700028,0.0036814550170983,9.61531908014644,0.980955175080946,-1.81878952756112,-0.003807748047711,-0.0107079044449466,0.0119831354941385,9.63804170608368,0.774461184412086,-1.72444522277629,STAND
1.86,-0.0122366622739836,-0.0014792505401602,-0.0015372722163087,9.68448491623096,-0.623373919178489,-1.50018372043221,-0.0291332096694775,0.0043274456573553,0.0040464904015416,9.54937754488634,0.96745821235515,-1.96987376146636,-0.0146188262759606,-0.0131379319735799,0.0102658291448542,9.61436302622144,0.77709277825124,-1.75051295927895,STAND
1.87,-0.0243904839746862,0.0047504937815792,-0.0020222443276354,9.66047855397301,-0.625388856154937,-1.52479737954043,-0.0199846631624377,0.015085458781263,0.0031463874371155,9.52521822231518,0.967473600773778,-1.96988792960235,-0.0192263885089961,-0.0157716073920313,0.0009850813813076,9.63632646660219,0.771590121054467,-1.6780068662687,STAND
1.88,-0.0153430500214302,0.0006438000795336,0.0074793386316612,9.63657557733099,-0.570337551725761,-1.48264203815416,-0.0154087738058029,0.0243065289673683,0.0020794833711007,9.52488767079045,0.917030118276854,-1.94722312615652,-0.0266992075238309,-0.0123293771022305,0.0024781000091435,9.65837933402097,0.745721731619711,-1.7039104191613,STAND
1.89,-0.0200116947823732,-0.0070130209419211,0.0063848009496033,9.66149537322801,-0.547074872593952,-1.48561152673448,-0.0168385952658856,0.0106339640434953,-0.0000030240103501,9.52545080192845,0.892902284471299,-1.94726394185137,-0.0325834470229162,-0.0088906478955837,-0.0005927808121237,9.65820553181676,0.746135889702063,-1.70471407944537,STAND
1.9,-0.0092622208949354,-0.0041826599592435,0.004769070094261,9.66318203731187,-0.562399009393435,-1.60736393330814,-0.0153322017377275,0.0152135099629352,0.0002082308612303,9.52527566232393,0.941890488557007,-1.94217596920811,-0.0323539700600992,-0.0043475488603504,0.0010237131261979,9.65809428767784,0.746668666504529,-1.70511100558799,STAND
1.91,-0.004752037146523,-0.0103265977261258,0.0051840580944086,9.6373123388828,-0.580435984595032,-1.557091479879,-0.0106958839839714,-0.0061862050150905,0.0010305687328603,9.59852303456137,0.942453292877718,-1.93804715232859,-0.0288451034001021,0.0031557091541616,-0.0018464365468564,9.61162733358997,0.755271967556495,-1.7792769810909,STAND
1.92,-0.0063184885884949,-0.0133550263380053,0.0053578381067286,9.63659613535026,-0.635298713533458,-1.60074180274881,-0.0199053850863781,-0.0032172955012875,0.0024477157314027,9.60176935941259,0.972539883960905,-2.00943177259633,-0.0288667046391109,0.0031280400687395,-0.0003184049339079,9.66087786013899,0.751383073597637,-1.8019735285398,STAND
1.93,-0.0109121276451547,-0.0149193484713381,0.0038884102392858,9.65978636428838,-0.657392679171347,-1.57452238938958,-0.0199121239068062,-0.0016920474688517,0.0025060800905135,9.59875125790257,1.04197374252784,-1.9552420196535,-0.0273861644320795,0.0029877475969272,0.0027557443907992,9.66025352384435,0.750876129537147,-1.77707880433577,STAND
1.94,-0.0016725057518102,-0.0105493344956313,0.0021641295771923,9.65947584480419,-0.627374617631243,-1.53032405491894,-0.0199321234489297,0.0028835791611598,0.0026816430927051,9.54530952458952,1.03434759558511,-1.86010651623457,-0.0272619476814338,0.0059783112547737,0.0058722590286603,9.63006900735618,0.704246483207192,-1.75458518252635,STAND
1.95,0.0153756698761458,0.0041123240193041,-0.0047184234400503,9.65882823133395,-0.651579262880588,-1.52760551301044,-0.0336882564651223,-0.0017846788331879,0.0036946107045426,9.56973743834459,1.0346615433832,-1.85858601014665,-0.0304175455678828,0.0060056364543809,0.0134747551919673,9.60935356802107,0.731679306135092,-1.77779897920988,STAND
1.96,0.0123536352544324,0.0089038421307413,-0.0019792943836837,9.63515114602411,-0.626686508905566,-1.5302973459032,-0.0352914599305744,0.0073036295467228,0.0055352338034909,9.59615828695896,1.08745127221963,-1.90162085120977,-0.037722464134231,0.0124939179559342,0.0150342699049076,9.63189199479476,0.704880971919105,-1.80144851530379,STAND
1.97,0.0245287723173563,0.002484436877839,-0.0045449819050532,9.63681977333853,-0.581213347524188,-1.55984759974203,-0.0398804798963282,0.0180284557427521,0.0043134286963763,9.5726955822608,1.01455877715885,-1.90688296666688,-0.0406021316408133,0.0157103363321928,0.0150601304874105,9.58502925950512,0.731946726464107,-1.75122370350342,STAND
1.98,0.0258969668330284,-0.0045827458815076,0.0050757937051,9.61542362051838,-0.459967546615099,-1.57522606982666,-0.0399353351357842,0.0133337014810354,0.007183419623641,9.52114282891397,0.960118274842506,-1.83825779619888,-0.0499127767574738,0.013173068478459,0.0148868040371929,9.61373637902498,0.754711297437658,-1.79667753125774,STAND
1.99,0.0166574551782926,-0.0089522817514798,0.0068017334734054,9.64125521880468,-0.416005724877505,-1.60559369044637,-0.041473492983899,0.007169719939676,0.0084308678004471,9.57177582934843,0.913596199804155,-1.86263160197585,-0.0530666823192595,0.0117903696136879,0.0163464514716598,9.56217302832185,0.734375106461733,-1.77291528042248,STAND
2,0.0166249440001441,-0.00866887290802,0.011370829521111,9.66635023626054,-0.366250700225203,-1.58774996657437,-0.0445257395814395,-0.002048185286683,0.0095191336220901,9.54932321306103,0.84235231600392,-1.89328535866728,-0.0577666534008706,0.010462765962216,0.0193148791141944,9.56179412147952,0.732688155405502,-1.74705976167165,STAND
2.01,-0.0063155499776618,-0.0083101728613781,0.0126976367346879,9.68935326708378,-0.41649960425297,-1.5821131738354,-0.0307184419131902,-0.0003710472285776,0.0068693964977184,9.598340047903,0.818159807187,-1.8926175969334,-0.059246404863224,0.010609123397002,0.0162417244854677,9.6280518406776,0.673390295645732,-1.69716793123211,STAND
2.02,-0.0292558185071456,-0.0079500398088965,0.0140254374816529,9.71166180672442,-0.460489171782481,-1.5280978503203,-0.0246493020117536,-0.0004186140409779,0.0085439365451063,9.62159073839565,0.816098154505106,-1.86692073209492,-0.051922001507067,0.0041506200816964,0.0131480331693724,9.6087167126889,0.723138701193737,-1.67016720320734,STAND
2.03,-0.0382623520638827,0.0042457988195241,0.011672485308026,9.66036270927445,-0.587202368216033,-1.56272044791967,-0.0184499648403158,0.0043531020704726,0.0043042899318367,9.59550946312099,0.886829666392122,-1.83760570407289,-0.0427800021679394,0.0036375034057429,0.0132607937569559,9.60830928453239,0.701429938656772,-1.74367605851095,STAND
2.04,-0.0413170694663833,0.002570695746576,0.0086942684103534,9.68200314342661,-0.712248013534635,-1.57149317288567,-0.0047474951631633,0.004320689589058,0.0061670333652275,9.57184943079428,0.961402891857915,-1.85674212313115,-0.03761789400913,-0.0134611215409327,0.0129635470345821,9.62914736616735,0.672881716463388,-1.71997514675487,STAND
2.05,-0.0367395365651459,0.000900158303603,0.0073036867512839,9.63192272376262,-0.759705971932366,-1.56647413561298,0.0029537699945021,-0.0032277745319137,0.0045257713752668,9.5475267670971,0.960807541323616,-1.85788424025442,-0.0346514746192452,-0.0165516773739411,0.0068217000282794,9.62695190955264,0.649334042365338,-1.74665367684101,STAND
2.06,-0.0353061073881081,-0.0084424385714124,0.0048294690241299,9.60803676006784,-0.734924471104998,-1.57049538528851,0.007645439858284,-0.003034609771254,0.0000660435863762,9.54411506328402,0.930282335660936,-1.7872652670308,-0.0225281997909364,-0.0173345030379792,0.011552423039272,9.57549618979204,0.630196524473439,-1.75036912637657,STAND
2.07,-0.015336961005095,-0.0010626254886495,0.004533042500716,9.60951460462402,-0.689499535385433,-1.60129705640245,0.0015511198502607,-0.0060973061792132,-0.0002063243924505,9.57079572239287,0.934219278400754,-1.83515561496124,-0.0129827986692716,-0.0102659717012575,0.0133624760950136,9.57533300139223,0.629314577866366,-1.75157872084729,STAND
2.08,-0.0001792854291117,-0.0102886066234868,0.0067418389490538,9.63532651698732,-0.614847850956357,-1.58614290377239,-0.0046232220939332,0.0014545398475529,0.0014725107755777,9.57114990310159,0.885516234069077,-1.83926231208297,-0.008222013471578,-0.0060514110584593,0.0181042685867371,9.5745899643222,0.626958709435378,-1.72791118097399,STAND
2.09,0.0211422361644193,-0.0166348726853558,0.0072925316160216,9.65947348415468,-0.616271453029342,-1.58696773491977,0.0015821603220678,-0.004510973844717,-0.0016696523729383,9.5727001745586,0.838840090270917,-1.86760119790782,-0.0079443612559477,-0.0014492552983472,0.0166806453236232,9.55310834863424,0.652423029344704,-1.72768826196039,STAND
2.1,0.0334680933823208,-0.0074564024421948,0.0098828777145583,9.70929308907847,-0.570252057779394,-1.5930969142586,-0.0076830573514533,-0.0062384769214744,0.002616778761728,9.62137256322827,0.839050752110889,-1.86569227849269,-0.0062498876542485,0.0015109252507966,0.0167683015468938,9.63282700924456,0.693222451784751,-1.77245022272655,STAND
2.11,0.0198697102372793,0.0031819637259396,0.0060705380939691,9.6591460257721,-0.61872850341863,-1.58800440236157,-0.0092396640841466,0.0105958398700839,0.00172666218868,9.6226190980969,0.84095948691402,-1.88971794354328,-0.0012730622195328,0.008835236936787,0.0185244160236938,9.66072513208605,0.714101440507384,-1.79461776887714,STAND
2.12,0.0199084287617471,0.0079380446084795,0.0088367327270341,9.68359178021576,-0.620350964794471,-1.58693813451107,-0.003114845038414,0.006032891224588,0.001693555342605,9.57501724691548,0.867011112278442,-1.91362085902529,-0.000673442465057,0.0194977221571548,0.0187682666561144,9.66181582522264,0.713356966812087,-1.81762399096577,STAND
2.13,0.0093991704326756,0.0182584914275441,0.0004777236053309,9.65906779701722,-0.647665102918699,-1.60722861662717,-0.0001725500132409,0.0150669205781958,0.0051840406474303,9.5249005470712,0.913226454070311,-1.88678970535284,-0.0028199311629514,0.0088895108633608,0.0200341255500669,9.6358410806212,0.711166325205303,-1.74368037674881,STAND
2.14,0.0001669122586315,0.0155107944390203,0.0036336745851203,9.63297667000881,-0.689802270890488,-1.55155061024766,0.0030169793482036,0.0091566952638257,0.0004423275789147,9.50138584476859,0.987800981886101,-1.90529948918511,0.0014072073033244,0.0025362145774632,0.0199498627454496,9.65687481613037,0.681202736461264,-1.71927004534872,STAND
2.15,-0.0121506018370144,0.0079498030640118,0.0024743300348823,9.65817655182839,-0.666370191845192,-1.55303189272996,0.0061621354642803,-0.0045018550123433,-0.001556375361494,9.5214121834434,0.931352774331335,-1.81059871807319,0.0040461615598051,-0.0052211399201004,0.0182846148466532,9.60848562839447,0.684871552143755,-1.72059083844462,STAND
2.16,-0.0076429501139851,0.000092274173237,-0.0000653248128451,9.65793687542408,-0.693548933175568,-1.5739531011984,-0.0044313755763092,-0.0089758703732475,-0.0050523253572345,9.52781313088446,0.868446490538733,-1.93863649613245,0.01469194845386,-0.0072567424033157,0.0137947635944653,9.56345621160436,0.714007798349074,-1.74569606235798,STAND
2.17,-0.0061541765910338,-0.0029720467230801,0.0001345463113771,9.65825556423492,-0.69643541326244,-1.59836766247041,0.0047215687497489,-0.016644222927054,-0.0036075231924747,9.52772215690682,0.844521152128703,-1.94181104468854,0.0204631622954848,-0.0136659720813907,0.0122014634256617,9.55990182602512,0.68719318757168,-1.72354549832165,STAND
2.18,-0.0031275916850072,-0.0044382412759769,0.0017770715057914,9.65946191503131,-0.648007487124251,-1.60471996268784,0.014011802565481,-0.0118050084241998,-0.009295709084684,9.60014241717465,0.745956968914338,-1.92314310944334,0.0280828776828354,-0.0154967883948867,0.006146797758262,9.58812537565096,0.709392592678828,-1.77219134608288,STAND
2.19,-0.0001102548271723,-0.0075210563807427,0.0019897516844682,9.63558672216641,-0.623350233834764,-1.6087032172817,0.0337775028710087,-0.0195725927181748,-0.0045407666026275,9.5948573425639,0.762688754061232,-1.82565437573721,0.0356351642320741,-0.0160296462505017,0.0108213887601795,9.58997242273112,0.73122838066105,-1.74845448495348,STAND
2.2,0.0029270071616476,-0.0090809624808448,0.0021089871008605,9.65853298327969,-0.642402879033997,-1.5576450138242,0.0412990369092793,-0.0013158375320789,-0.0021014019857425,9.64497906846638,0.863761002545805,-1.86543030097745,0.0377870903421406,-0.0068192215659569,0.0034045986176268,9.61683742555815,0.751343528098172,-1.74816075887765,STAND
2.21,0.0121783189021986,-0.0031002286085427,0.0018128460234644,9.65876104872254,-0.645702347838362,-1.58241239911112,0.0367495917039774,0.0002603085709438,-0.0036772013287958,9.59499421998519,0.861168055132062,-1.84389491603236,0.0425095767995386,-0.0054639638494519,-0.0010908397523422,9.61811802018196,0.77276415422733,-1.69921327958346,STAND
2.22,0.0045353880370162,-0.0030076541712043,0.0017485596583198,9.68049106140237,-0.68306537082626,-1.47936339462525,0.0291158057354158,0.0094550759081888,-0.0050273296859707,9.57282509288809,0.889060876559138,-1.89160674056835,0.0379601117112747,-0.0037717237285174,0.0034727154295732,9.62358201369022,0.82043282491203,-1.69784376085332,STAND
2.23,0.015365824671791,0.0059064413122888,-0.0002455700604189,9.68117754969289,-0.689279012054055,-1.52760933370817,0.0276511712595784,0.0034113809642924,-0.0068285584123185,9.52412498963238,0.888875030309213,-1.89363406935028,0.0301903712575216,-0.0063498139147978,0.0017888844246543,9.59927077551751,0.822394808473012,-1.69918502819487,STAND
2.24,0.0245890865181515,0.0070365487051854,-0.0048310536688105,9.67938263608502,-0.762003254489903,-1.517868450654,0.0153886316737605,0.0063744940539069,-0.0054842153326729,9.52751249854185,0.919133383396785,-1.96438377697981,0.0194600964815623,-0.0072299866075482,0.0001023820054936,9.64488927512738,0.792060247418555,-1.69994076443105,STAND
2.25,0.0261179200423179,0.0070180931155113,-0.0048180656784917,9.63008305754103,-0.784962612888961,-1.51482529633644,-0.001323315772787,0.0049308567981898,-0.0090043427680299,9.55034538843706,0.966562971626253,-1.93459326951783,0.0118636637035636,-0.006762116454468,-0.001515190983779,9.64199718905318,0.767627843320115,-1.70178318727542,STAND
2.26,0.022921544501449,-0.0036052788791187,-0.0041861346267599,9.65679207288786,-0.715841984954491,-1.5472913535622,-0.0044619904737836,-0.0013562963527915,-0.004744848770678,9.54794180319097,0.963449950396086,-1.88577437996262,0.0061152639261231,-0.0017211675723808,-0.0076005638915775,9.63635705474188,0.719445397482356,-1.70434385092647,STAND
2.27,0.024268875602996,-0.0139060460774777,0.0025781500351678,9.65662288920588,-0.685871112085373,-1.50252939865661,-0.0060497872579056,-0.0045298836160405,-0.0018530307408555,9.5022255988637,1.01805509681196,-1.9575178239132,0.0074005672919178,-0.0063478307076659,-0.0092082797994656,9.64036362699531,0.746310499644299,-1.75251214525467,STAND
2.28,0.0227322240674315,-0.0172172634296681,-0.0018150585472997,9.65832136167895,-0.64387391227896,-1.55834971301385,-0.0073651235083454,-0.0103345494820571,-0.0097504114583962,9.575244846486,0.871137607569805,-1.94170523410748,0.0058126263201941,-0.0063513160924664,-0.0046423629022512,9.63675369318541,0.721661036618254,-1.72982606288731,STAND
2.29,0.0227532240750912,-0.0174068601948594,-0.0048610375908748,9.65933878170936,-0.59546987982676,-1.56591813184108,-0.0028026617905058,-0.0149589733133399,-0.0082931779493071,9.60284489806746,0.877969263834692,-2.01460923555273,0.0057698313242115,-0.0064117747721207,-0.0015865149166466,9.63385862432405,0.697625807293203,-1.73151906813411,STAND
2.3,0.0243305792797429,-0.0110488315181913,-0.0006581542992925,9.68545126928951,-0.553796415978083,-1.62124956946856,0.0139935643334198,-0.007232368935098,-0.0091089326063498,9.55334981482728,0.927129171894012,-2.01428849253192,0.0121236544905349,-0.0021912761970296,-0.0014181347841353,9.6406601938552,0.748011592647759,-1.77869910216281,STAND
2.31,0.0275367823516634,-0.0005208183788097,-0.0028202347072269,9.63753295869806,-0.562004447039053,-1.69513184473146,0.010809889973392,-0.0028441207094354,-0.0044316491381183,9.5522241819774,0.901274475785932,-1.99247900128596,0.0181315546754132,-0.0040635486940983,-0.0013793257228053,9.6399134620195,0.746918312417304,-1.75472803023255,STAND
2.32,0.0245484663167604,0.0057025683332446,-0.0017026832225088,9.63567778143186,-0.604561861277661,-1.6402146197369,-0.0029195602425803,0.0032818627495373,-0.0060523566298441,9.55122127166896,0.875445795759393,-1.97008679918615,0.0256417310295049,-0.0060529650767001,0.0002053084991348,9.58788370443068,0.726974961421689,-1.73315099851075,STAND
2.33,0.0184930392725889,0.0103443149107169,-0.0020388581207564,9.61235088248471,-0.552665223794588,-1.62158461585581,0.0062099523090682,0.0017201196085862,-0.0043644243335464,9.55079106875601,0.924588422259478,-1.96605552050659,0.0285159117173819,-0.0092738524321279,0.000177020462734,9.5911913583274,0.75167029138003,-1.75745084310114,STAND
2.34,0.0138288442149755,0.0025937766916215,-0.0046456623545247,9.65969298313927,-0.599145138017835,-1.58974614077533,0.0138864680748269,0.0002742997703367,-0.0057621307269831,9.59718074192065,0.92130717777099,-1.91505203902151,0.0301046955722448,-0.0078673649931749,0.0017546550825487,9.61529587481238,0.748275620124103,-1.75792889742682,STAND
2.35,0.0138580268386478,0.0057352025102311,-0.0033137498136048,9.65981381203831,-0.629317807979768,-1.63464699698747,0.0001035425185262,0.0017041905332834,-0.0045134157628987,9.5486023660753,0.897073200747787,-1.91930073626038,0.0255127388989053,-0.007634856118519,0.0032298840109364,9.61659364198707,0.769917210801635,-1.70910464784478,STAND
2.36,-0.0076239617011818,0.0016139854892697,-0.0001593351473117,9.6585942306631,-0.647291085397786,-1.58278148973685,0.0032371991036483,0.0003063772352147,-0.0075469196340672,9.57273130685121,0.922084539193072,-1.91613068169641,0.0225520244188772,-0.0059370376870825,0.0032261657055382,9.64142228457132,0.767335335284816,-1.7337672375491,STAND
2.37,-0.0060444183100091,0.002830968230347,-0.0048109959440276,9.65573146201609,-0.68006970319538,-1.45541251630251,0.0045908730413964,0.0138578889025899,-0.0024023465440588,9.59676115088242,0.971293844956723,-1.91050114498183,0.0107515585686156,0.0009121557932644,0.0001542733028797,9.64206304529044,0.767806802057316,-1.75852456279096,STAND
2.38,-0.0000693610633135,-0.0044725950021698,0.0018095294554557,9.6570202870313,-0.661785089369739,-1.50700167784845,0.0000250380448711,0.0107953800869789,-0.002633077916249,9.54798008455359,0.995569795722855,-1.90983316829935,0.0032412414935277,0.0029007308525048,-0.0014306001211398,9.61650020518261,0.768690327783304,-1.71018225756153,STAND
2.39,0.0045872335752286,-0.0017690752823971,-0.0029121588338864,9.68115079340133,-0.750291971568864,-1.61882456926357,-0.0076868513891891,0.0198663231425892,-0.0009398034836005,9.57382408479302,0.997851145147645,-1.93144316735797,-0.0057295036202286,0.0050630256051661,-0.0076170794400142,9.66846468798679,0.788731621197113,-1.7320576913329,STAND
2.4,0.0091723847720235,-0.0001091527196524,0.0000763571358011,9.65921794041979,-0.622489700416201,-1.5860958865403,-0.0015665989603329,0.0168324142380425,-0.000908332467028,9.54859578130229,0.995989989883559,-1.90653306332329,-0.0118892144457888,0.0039175965591267,-0.0092467066942535,9.64079352561554,0.767323193724647,-1.70872575313499,STAND
2.41,0.0228525110938868,-0.0063640527181421,0.0005734430930249,9.63664254190624,-0.549552592877623,-1.59588443484663,-0.0015757891873292,0.0106720761326375,0.0003782443615911,9.54833688727807,0.921119832233511,-1.88659299197102,-0.0160491424249217,0.0117662988870667,-0.0076157828391716,9.61729002600049,0.772085092337111,-1.73281545826214,STAND
2.42,0.0229808317459856,0.0026765860699285,-0.0015242966374307,9.7101562937533,-0.55468609779396,-1.61893785421741,-0.0045634652357897,0.0046229258148744,-0.0014593197444422,9.55064003871904,0.949386558680474,-1.93255409941013,-0.0176167179387311,0.0103883984323664,-0.0107205698583985,9.61465504870589,0.749021129506408,-1.73262263385236,STAND
2.43,0.0139159135354061,0.0120185899901394,-0.0006534762571292,9.66114271928238,-0.55064239452603,-1.59471932264104,-0.0076610520801981,0.0060801484732425,0.0000487664126635,9.60212098841361,0.929316838090821,-1.98008698720763,-0.0176156114860345,0.0117947208118283,-0.0045772937332743,9.56490012544395,0.733254443914743,-1.78234520235219,STAND
2.44,0.0169354506679259,0.0072212070711702,-0.0033854271019266,9.61245975665427,-0.519162344563833,-1.54916116323803,-0.0091502154137147,0.0061358599856082,-0.001513359924629,9.5498761625097,0.923552979254132,-1.90891606633479,-0.0191606203954639,0.0118523738253964,-0.0030671351035337,9.56508274763405,0.733947660300293,-1.78107938140173,STAND
2.45,0.0092406486002494,0.0060786819096853,0.0012152188823601,9.63826898296617,-0.501793916906769,-1.59954868203425,-0.003207978788816,0.0089631644259619,0.0048544979752832,9.55055875371564,0.998441207715722,-1.92673132877863,-0.0179170593873383,0.007166187731038,-0.0016164170602876,9.56248252159134,0.710264629147237,-1.78105037399199,STAND
2.46,0.0015890780219879,0.0028342173203098,-0.0032254569081146,9.66086896822854,-0.574997599789327,-1.58945532962541,-0.0183235734433869,0.0091620472929092,-0.0016223381476406,9.57393158900448,0.99670773239841,-1.90023400836259,-0.0137123044566215,0.0021873081055799,0.005981491273373,9.58614278501147,0.706610266807424,-1.75552969256578,STAND
2.47,-0.009183170492341,0.000205351784312,0.0014453235618924,9.63644793669101,-0.543894381414169,-1.54438444540362,-0.0260035937965125,0.0029210093542935,0.0009968404046408,9.59767445890884,0.94669077987461,-1.87773597770472,-0.0121240350204499,0.0035937818122313,0.007559477770106,9.58279898719786,0.680999442482107,-1.73179941196349,STAND
2.48,-0.009192228767273,-0.0014139198852435,0.0000186474019855,9.63739767708306,-0.522691902073411,-1.57178076096552,-0.0260625106642413,0.007436332206308,0.0027009295479756,9.60162637038412,0.928450021188948,-1.95183602372066,-0.0047216875796867,0.00005226274232,0.0106412659454494,9.61058574860138,0.702681073578316,-1.75435139316811,STAND
2.49,-0.0122210019850835,0.001764341620676,0.0013234227900342,9.68432380842491,-0.596384121003779,-1.56178761782803,-0.0153860544446941,0.0013035787138383,0.0042514769740681,9.50443505735132,0.903670809785919,-1.95802531553653,-0.003241335310028,-0.0014983385279027,0.007571362495673,9.60994864644426,0.700920863407088,-1.73000725343066,STAND
2.5,-0.0137707848967889,0.0019752039404783,0.0043563358419635,9.65959562770936,-0.592800834342522,-1.53787981020188,-0.0076566967061818,-0.003130787913995,0.0012129483660328,9.50564689393037,0.905572930270487,-1.98231534915619,-0.000215700683169,-0.0017026703036864,0.0091353156849324,9.63906087581975,0.74487752278328,-1.70313373174473,STAND
2.51,-0.0092238197212711,-0.0011249078832857,0.0045870783552788,9.65894697602305,-0.617268967386745,-1.53484389309794,0.0001200464882769,-0.0013433330438453,-0.0046329869833049,9.55118806517664,0.851580736823044,-1.9109920856025,-0.0001080160159386,-0.0015531240894803,0.0014957520005631,9.61206298657702,0.722920281335737,-1.70489131612905,STAND
2.52,-0.006046698495411,0.0062601993585691,0.0010876672755618,9.68245087384132,-0.669504860488941,-1.55232491546731,0.0015476598776061,-0.0045714082374963,-0.0001428749155439,9.59626680623091,0.846238644509292,-1.83592432718027,0.0013071728569017,-0.0045971199303151,-0.0031343331946951,9.63901424611225,0.744436669454623,-1.70359031647909,STAND
2.53,-0.0104659559142452,0.0201161003915125,0.0017091447606974,9.65858303985738,-0.671998176459436,-1.57573814644516,-0.0015476598776061,0.0045714082374963,0.0001428749155439,9.62215989602754,0.947588027195398,-1.87560840375322,0.00272280346905,-0.0062375038443247,-0.0016206044802502,9.6361427424506,0.720395843357001,-1.70515389385744,STAND
2.54,-0.0073885673795833,0.0216024162762663,0.001639681516922,9.61239209263778,-0.6316251167677,-1.65339550321608,0.007505916599253,0.0028885527850843,0.0048838757959299,9.54887990393712,0.97124379240176,-1.87700601543987,-0.0003243876930543,-0.0060629850657614,-0.0016564040936487,9.63602604782174,0.720533280506373,-1.70575517600314,STAND
2.55,0.0017375034450749,0.015113698223969,-0.0024665725863578,9.61269806683378,-0.631538669867497,-1.65164867320598,0.0028674543825464,0.0073915127442949,0.0064745082657977,9.59560856691294,0.942650324926323,-1.82743735470197,-0.0000864464092769,-0.0015232164096333,-0.0000321203184234,9.58677646074831,0.725236753406616,-1.68287383666547,STAND
2.56,0.0016474216274685,0.0091185320749157,-0.0005608120621969,9.63850034858313,-0.553230110056191,-1.61077652016975,-0.0093314336773841,0.0043097768630866,0.0060484872220841,9.54557938973292,0.964260025216962,-1.80305381329723,-0.0061585333757185,0.0002593339668021,0.0045123637011751,9.61447440577559,0.747478272986673,-1.70570096178762,STAND
2.57,-0.0059962053635612,0.0092097230893015,-0.0006281991586314,9.63730917755039,-0.571220539317786,-1.5584130665837,-0.0170298555637871,0.0103303942783577,0.0076228617909478,9.57235961717908,0.992182306687613,-1.8476885324281,-0.0108371933363254,-0.0010319595470928,0.0059546096881311,9.59370511747532,0.775101042855794,-1.7296013186958,STAND
2.58,-0.0091043548317906,0.0062965730241723,0.0010589828538655,9.63778571755365,-0.574187384375525,-1.58192742610014,-0.0216029101462342,0.0087938642611126,0.0074474942316918,9.52626887905482,0.995462477410297,-1.89764523767471,-0.0155372853799469,-0.0023531898607508,0.0089247836474368,9.61589890731265,0.748550408293645,-1.7545100655951,STAND
2.59,-0.0060666807806678,0.0047372881959649,0.0011817741328883,9.63497804132821,-0.667970653046313,-1.54501271048045,-0.0183912048133134,0.0075198043081237,0.0013668112977792,9.55228147740701,0.973153909094534,-1.92168732344256,-0.0152561649616915,0.0022465641750878,0.0074940454052487,9.58686165691468,0.703318181439369,-1.78142499987899,STAND
2.6,-0.0044870711414196,0.0076687909147824,-0.0005186340547405,9.68478394946701,-0.617597199546073,-1.52546050957794,-0.015407287420159,0.0058801497631642,0.0044312981713986,9.55222190346198,0.997537255381372,-1.91893904559031,-0.0139272930442098,-0.000917512061735,0.0089748831353957,9.6388768669745,0.722401677825245,-1.80346851792939,STAND
2.61,0.0123599844133568,0.0088950402450676,-0.001986522994247,9.68455617849877,-0.614474353666559,-1.50041547249288,-0.0153177109690951,0.0029521881112764,0.0012611772712712,9.62434512646126,0.84799010736647,-1.87774829228347,-0.0166276223087199,0.0053503303980303,0.0090697652515977,9.62930247794674,0.647163407372492,-1.75750286434964,STAND
2.62,0.0122947856670551,0.0077559265635098,0.0042008495949019,9.66235959059071,-0.602228019892456,-1.59990114462704,-0.0077319388811532,0.0136465047764947,0.0018805728943316,9.60314112524314,0.926819280266917,-1.94514752509135,-0.0091179312304383,0.0033586831980199,0.0106540911358562,9.60588113482366,0.650213433946399,-1.78195428623873,STAND
2.63,0.019998104834143,0.0122330235049127,0.003982874671733,9.66476466028929,-0.533309816246157,-1.63223086045975,0.0013895220256558,0.0136072021331188,0.0036363623476203,9.52927721330744,0.899971669399015,-1.92516262844994,-0.0029582031547734,0.0045005949568153,0.0122861623357315,9.60811573956014,0.672476620108593,-1.75610496799864,STAND
2.64,0.0154518495075592,0.0153334950091426,0.0037494620200496,9.66396364679213,-0.555112761081502,-1.60352449243981,0.0044359743612937,0.0151396324840457,0.0037748050479583,9.55194722498605,0.847090728326719,-1.87787177333564,0.0031575848312475,0.0041800487015438,0.0108297026333925,9.61104823402336,0.695597148077076,-1.75464082471577,STAND
2.65,-0.0044931270297983,0.0110995709900787,0.0053778123863541,9.61534434047632,-0.554470469735043,-1.60311594132973,0.0151941114254972,0.0076005150742862,0.0022173842559531,9.57533961809839,0.844779203077484,-1.85132247143138,0.0077498139744524,0.003947008897053,0.0093554832847177,9.6146587689226,0.719738203833774,-1.77762651667314,STAND
2.66,-0.0214690537634968,-0.0008807424133148,0.0059899219673573,9.66483938439588,-0.531769984928188,-1.60485580092308,0.0198207024370532,-0.0030646326064826,0.0019078368371045,9.55326158212094,0.872382327140295,-1.89916154472644,0.012537836992178,0.0067905076438693,0.006418926128399,9.61759380523767,0.74303201966806,-1.7761390154526,STAND
2.67,-0.0305092986406179,0.0082704100124948,0.0038078039550872,9.6625775677258,-0.601403009786571,-1.57125599571815,0.0213907138064807,0.0046867289746734,-0.0007980236659519,9.57477799652244,0.916831087994664,-1.84553353196714,0.0095123071165861,0.0069968506310861,0.004855059715177,9.62332643947983,0.790758893473196,-1.77347431325503,STAND
2.68,-0.0214606253833827,0.000737468595606,0.0074163865583591,9.63666155594392,-0.676649331050536,-1.58650440431997,0.0167991356717706,-0.0014854807944798,0.0003672162706217,9.55245571489064,0.968941489738426,-1.89154141822206,0.0096428207969177,0.008580631276078,0.0018317992572414,9.62209231039841,0.767968049741286,-1.82261030317494,STAND
2.69,-0.0030691460433199,0.0001326958312542,0.001494615901689,9.6346024115314,-0.719202895902553,-1.53201708081074,0.0106927594540802,-0.001499890077165,0.0002117022656095,9.57536942981298,0.991166890436608,-1.86433816368272,-0.0008256749350246,0.0136756420490783,0.0063863862658584,9.62163075538192,0.766526853253082,-1.79718834583791,STAND
2.7,0.0106170174514029,-0.0045066981051394,0.0034311255464634,9.6361069677677,-0.643797289619952,-1.51711933179733,0.0029829254579504,-0.0016391772722686,0.0030657682124081,9.57738833642894,1.04343069268796,-1.90931031573917,-0.0071162379305954,0.0109513849171668,0.0077764104134548,9.58651239681785,0.671802233205774,-1.80071745316538,STAND
2.71,0.0274680377973299,-0.0049978443117054,-0.0009821913875426,9.65978613709869,-0.669010161462119,-1.51395314392799,-0.0001035202264417,0.0059794585397196,0.0032897426008295,9.53035310467535,0.996133449245732,-1.93976604178286,-0.0038072606755237,0.0153446255796121,0.007910906982091,9.61313270506643,0.691597018494769,-1.77340720200549,STAND
2.72,0.0367212732628359,0.0009822479437821,-0.0012800395064115,9.68518209487559,-0.648833780861019,-1.54075762152221,-0.0062164873293731,0.0074903758993957,0.0031944830524692,9.52826498796387,0.967673687738167,-1.89241031981821,0.0038104231272845,0.0149036690699514,0.0080030883419514,9.6155407233654,0.714096068967027,-1.74652627834856,STAND
2.73,0.0381984962782968,-0.00198552852714,0.0004489148290151,9.63653966980709,-0.590530738916845,-1.47495011538787,-0.0077364737642199,0.0059616892962709,0.0030951415027387,9.57739775862974,0.943394647383367,-1.89114111614147,0.0097297133272271,0.0115043462985709,0.0080120560677066,9.59229425012066,0.716993385525046,-1.77028306188064,STAND
2.74,0.0412130411366842,-0.003352180077576,0.003619243162415,9.68796834663029,-0.526037707918281,-1.53173367084505,-0.0090954849871458,0.00315066645383,-0.0031615099751148,9.55518064945748,0.84803977958757,-1.92391023607907,0.0077465429808507,0.0039466744747734,0.0093586210669735,9.59249321309765,0.716005600898739,-1.7696046118063,STAND
2.75,0.0335781543729663,-0.0016398716299252,0.0049752342809226,9.63808627438614,-0.546955359577755,-1.5053782195623,-0.0000960107257393,-0.0047577861191457,0.0043910278240254,9.57976338282098,0.823845373844457,-1.9246353834919,0.0058059672950067,-0.0021479888914509,0.013793856225096,9.64036598275157,0.708164447979609,-1.74399005772626,STAND
2.76,0.0228885074063295,-0.0016069842579276,0.0033538183714196,9.6627164555759,-0.521062751473102,-1.48381026809931,0.0106794941929369,0.0015496487049694,0.0003334424575706,9.57626141812006,0.793357305348578,-1.85384911156613,0.0090297334405155,-0.0006814129315832,0.0077518094988252,9.61546367133701,0.708863415901564,-1.72039000322645,STAND
2.77,0.0061036099493517,0.0000229283786551,0.0015791697036745,9.66112426549926,-0.597247962970807,-1.49873449260359,0.0168384257482335,-0.0106376207854158,0.0000059968431787,9.57822303314397,0.845635105083773,-1.89914582346482,0.0214795458000444,0.0045827403242217,0.0141426849341272,9.60187670899174,0.785938780046814,-1.7909658722218,STAND
2.78,-0.0062425558102474,-0.0056271579793791,0.0064230790567475,9.71023341492297,-0.601929769636326,-1.52232060763477,0.0198783450644535,-0.0075802249570799,0.0002044352889235,9.62741520471328,0.920445304662801,-1.91621813310419,0.0202654745622276,0.0078968818182892,0.0050207161393379,9.62839708190033,0.805092716395076,-1.76451943196788,STAND
2.79,-0.0030285904288312,0.0031800043975787,0.001300885490044,9.68560102959555,-0.659372804293842,-1.5893637971069,0.0228732220567556,-0.0030580368864659,0.0019868107128735,9.55069923776642,0.889471780198804,-1.84965198135696,0.0173493790114557,0.0110611743456966,0.0081034301197958,9.60509137652388,0.807908799911675,-1.78874500966643,STAND
2.8,0.0000405886662851,0.0030454327531618,-0.0001938525560198,9.65994813840867,-0.707223725471269,-1.58333148024123,0.0183834168879042,-0.0059983824459385,-0.0012980885912086,9.55265537317179,0.941579366488018,-1.89505241185456,0.0080325849208504,0.0085473498350078,0.0079262496885796,9.63029115367699,0.805020264829769,-1.81168654865781,STAND
2.81,0.009132220157629,-0.0031573759274776,0.000278350434974,9.61206773615405,-0.654585737035586,-1.56618251104609,0.0108338940537003,-0.0074209530561686,-0.0046003212125807,9.52832823690978,0.917132757499729,-1.89898130544984,0.0035050153401681,0.0102779034183112,0.0109573303396119,9.62700627008353,0.778834286440749,-1.78746021558903,STAND
2.82,0.013666520429517,-0.0061614437721575,0.0020373867878219,9.63805499673992,-0.610165105367854,-1.59651772449006,0.0140414818614612,-0.0163848375631893,-0.0094540704521067,9.55284341806843,0.86900428176844,-1.90281023275471,0.0006115072096237,0.0134725045676293,0.0125111195127881,9.59535305707408,0.708759224132866,-1.8143844043397,STAND
2.83,0.0228510379801376,-0.0063708883277877,0.0005986592316309,9.63693134658225,-0.631677258649378,-1.56969495617304,0.0260943477205114,-0.0150700833606325,-0.0029886459156657,9.53155240022985,0.899174026782518,-1.97674133647816,-0.0066960577097007,0.0185457920615739,0.0094552087820025,9.57075319847721,0.709661399983999,-1.78905531589884,STAND
2.84,0.0319633394120969,-0.0110509735594434,0.0009743722525474,9.66054412407766,-0.656986140682897,-1.56680631691011,0.027582628897696,-0.0151260025706877,-0.0014259278977121,9.52880276000963,0.895042969340605,-1.92980322978564,-0.0134988293016967,0.0081219902888695,0.0152664388391198,9.563979723645,0.658311810008883,-1.74098347838403,STAND
2.85,0.029108974459035,0.0042131888059027,-0.0000285722166239,9.66235178015972,-0.554432625496176,-1.53098546072463,0.0214895922999342,-0.0181910503477012,-0.0016979247274581,9.57096244777565,0.909797693791036,-1.80572069115502,-0.0138521366249298,0.0020295005894565,0.0151382453853978,9.56699034213247,0.681324539145632,-1.73938182273301,STAND
2.86,0.0275689617273988,0.0043299633354998,0.0014803563518714,9.66075078379077,-0.600211162444506,-1.49995772785512,0.0091257760747473,-0.0184580447350213,0.0040932447948485,9.54988029218261,0.914975215450432,-1.88176490605196,-0.0093243337965777,0.0002979756947248,0.0121081309402368,9.56919595466921,0.703500637322044,-1.71377794381116,STAND
2.87,0.0107312635816346,0.0030128166929036,0.0014246769577485,9.66116325381256,-0.603777996183581,-1.52369667545192,0.0076480422367494,-0.0122423776516822,0.0012426486525859,9.55081913382393,0.916456131720347,-1.90761827832259,0.0071024936846015,-0.0067478980759957,0.0106637565395054,9.57487745018514,0.750885770516388,-1.71202015814745,STAND
2.88,-0.0014704874829017,0.0063059868081274,0.0026394503489339,9.66260599541472,-0.586121870967287,-1.5747654609382,0.0076612148290795,-0.0152927360072365,0.0011247380592579,9.56937250147461,0.858175226586328,-1.79000235600024,0.0191357321199094,-0.0104800663006456,0.0092257173472272,9.5526667761294,0.775847550718878,-1.6881475976264,STAND
2.89,-0.0030285405821045,0.0031810596354918,0.0012986634315486,9.66156429171694,-0.576857008592775,-1.50169477668372,-0.0060159807392539,-0.0121570913546349,-0.002146976343381,9.62549222827964,0.821113155412894,-1.93853809322494,0.0261777561212653,-0.0215302441930014,0.0060416992041295,9.55390849533008,0.776618902333337,-1.7386223065139,STAND
2.9,-0.0016422616745671,-0.0074961854487123,0.0019987110035221,9.66087178614852,-0.601185223754195,-1.49878783815953,-0.0181602815118829,-0.010542979233989,-0.0054389197443632,9.55026043669456,0.892483200202024,-1.9131811800207,0.0242765987480143,-0.0275624002976696,0.0074237273404819,9.57777190079809,0.772675443980198,-1.74055679193671,STAND
2.91,-0.0063562721859813,-0.0131373030520693,0.0084398063457552,9.66011275256289,-0.656314444415332,-1.54197014174771,0.0016144479363165,-0.0029279676344256,-0.0031290068217372,9.5512855006288,0.894947192365878,-1.93806164239751,0.0163490269885738,-0.0331482261709738,0.0041470878351764,9.576574615037,0.770837101726416,-1.71923503393908,STAND
2.92,-0.0001158493357915,-0.0057957929980325,0.0049601506658657,9.65992273693453,-0.656911749148956,-1.54290585756973,0.0094123343432191,-0.0149326865562086,-0.0079859593921223,9.54932394189727,0.818560283266602,-1.89600262768126,0.0117563992114838,-0.0329082581670605,0.0056195619924184,9.60098730668091,0.768190876006959,-1.74630045136442,STAND
2.93,0.0105135349112231,-0.0103973373839258,0.0068738159127576,9.65874446214707,-0.678628584318013,-1.5163164934089,0.0107803668135008,-0.0044303375937717,-0.0029625501635066,9.62160357926192,0.892279203581349,-1.88775427662575,0.0027934992599765,-0.0293238459277655,0.0055720641619274,9.59978879962863,0.76660136705994,-1.72495713222161,STAND
2.94,0.0105546206601445,-0.0073520461069815,0.006677785749884,9.65892188469382,-0.682584301070682,-1.54131059359815,0.0183557810025341,0.0001052643430177,-0.0010738214432784,9.5808692346332,0.929518666444104,-2.05879442847337,-0.001887554852884,-0.0306066390354943,0.0070145218410991,9.62424838057456,0.764047860611589,-1.75164647068446,STAND
2.95,0.0121881115404943,-0.001477296369928,0.003253532900794,9.6584631053254,-0.680094966275908,-1.51745122404054,0.0184536210976911,0.0033327952109538,-0.005529155406323,9.5275726342599,0.8973273985957,-1.96582930978346,-0.0062584178391962,-0.0272620778175424,0.0054953883158101,9.59670734316425,0.742158062825394,-1.7559698556725,STAND
2.96,0.0092632382796579,0.0093175543719867,0.0040614994351567,9.68397323081628,-0.690657556001074,-1.58918361735642,0.0214998417372877,0.0048658519117765,-0.0053954004049042,9.55036510417875,0.94438299688802,-1.93636061943665,-0.0045356553334764,-0.0242766802337275,0.0040478858373866,9.62120535658151,0.739852924920165,-1.7822259210686,STAND
2.97,0.0092969993771782,0.0090217859424884,-0.0005068238202323,9.63602118202008,-0.696062627748717,-1.63752956658326,0.0062548867959145,0.0002507570147902,-0.0059468176470328,9.57496418631099,0.920441533218481,-1.93691375416525,-0.0013997604713235,-0.0229332864363299,0.0041145063593129,9.64505290990749,0.736642908964425,-1.78391691396289,STAND
2.98,0.0123249038250196,0.0058399151336056,-0.0018051835441343,9.63542758754412,-0.689824745940208,-1.58832412772078,-0.0043730801453793,-0.0042941546448334,-0.0079096060317357,9.57604927919235,0.922963388946654,-1.96142880218698,0.0034169419513435,-0.0186627740421885,0.0057888384997386,9.62047984068442,0.739018793493532,-1.78648336337024,STAND
2.99,0.0169003183735655,0.005881764038128,-0.000240662463266,9.6619725605039,-0.648471019196639,-1.64191631662051,-0.0029951405993199,-0.0045249936947515,-0.0017748153187768,9.57710495225352,0.925377006967054,-1.98612984405954,0.0100457135313317,-0.0098840814306217,0.0060455487262598,9.65371629107089,0.809062560920001,-1.80875203581426,STAND
3,0.0229357902534615,-0.0020048937004859,-0.0027375300222414,9.63659015743668,-0.669089887754934,-1.61468989765524,-0.0151124481011454,-0.0090156401739106,-0.0052991470266857,9.47917821112564,0.949714022963469,-1.98961821547671,0.005716050639058,-0.0064811361086146,0.0014721058799789,9.65227667391931,0.806709107230794,-1.76083046345629,STAND
3.01,0.0197729998081716,-0.007859245931621,0.0006750164497231,9.66193976249542,-0.648905050971836,-1.64193784201433,-0.0197640806226868,-0.0014608126172381,-0.0035942694128219,9.55595956728214,0.932188958404237,-2.06116939561938,0.002545155461986,-0.0064746157958067,0.0106064960618806,9.67644929812712,0.803178251525847,-1.76094243399821,STAND
3.02,0.0135133503523358,-0.0184415309644412,0.0013116503795349,9.63629831949555,-0.669699904296591,-1.61617808284506,-0.0136369247645548,-0.0060198310057866,-0.0036206911052366,9.52763015643103,0.827830188363353,-1.97283738770404,-0.0017433256847399,-0.0030138316148757,0.0029769114886801,9.69780499485666,0.775410763769835,-1.76185299210686,STAND
3.03,0.0105173591092697,-0.0138358727891689,0.0009871992424497,9.61061476527089,-0.690426967434776,-1.5907238909432,-0.0045127448292913,0.0016309862920385,-0.0031019714606869,9.57705996453469,0.87916674442775,-1.99112753997375,-0.0048795155711546,-0.0043567040033573,0.0029116649460775,9.67001375789885,0.752911249563155,-1.73933589201697,STAND
3.04,0.0166126718023491,-0.0154342728648184,0.0011409045618226,9.65882818445335,-0.688780652749415,-1.56696451244313,-0.000021157773474,0.0045755436315125,0.0001766566148011,9.5304806796415,0.907207943217454,-2.03994565021171,-0.0048178048200439,-0.0042698846799505,-0.0016726627967411,9.66994339080287,0.752935687397526,-1.73971648377735,STAND
3.05,0.016663563988587,-0.0107670508015842,0.0023660493825196,9.65961600534679,-0.66819179749991,-1.59548825678555,0.0060991717518104,0.0015418607347424,0.0002087192614011,9.54901058065552,0.89780901300996,-1.91692427619062,-0.0048178091896971,-0.0042698819539901,-0.0016726497621871,9.64692944393299,0.757910547386185,-1.78941059850143,STAND
3.06,0.015225542507367,-0.0013138002893196,0.0063247663171811,9.66177420191616,-0.568890526728124,-1.58445516654049,0.0122494621406884,0.0000924812632129,-0.0012245352590475,9.52677958970104,0.925665003401825,-1.96487127821271,-0.0029853275988571,0.0002672235302985,-0.0046182453156356,9.62263183303091,0.761160421444012,-1.79011561139407,STAND
3.07,0.0032131489597986,0.0105199859215111,-0.002191926073151,9.68554219209885,-0.56347232686105,-1.53512153054825,0.0091751483773077,0.0046596913507976,-0.0011232415273214,9.57439949124163,0.923948659276837,-1.93803506887757,-0.0057642341295311,0.0050165147101498,-0.0045584122011229,9.6420640078889,0.731794253856376,-1.71712176436973,STAND
3.08,-0.0028820476110501,0.0121185877419971,-0.002345513204963,9.63696675075199,-0.59261062905897,-1.58012140421142,0.0016677523157661,0.0017651925512197,-0.0060010177956206,9.61800290302153,0.965598986600396,-1.8343789997513,-0.0083647065254498,0.0128118690412291,-0.0044358848029461,9.62211182180335,0.761309624047939,-1.76452898204638,STAND
3.09,0.0047724008154045,0.0136459278133067,-0.0008541227511008,9.6612781412159,-0.620461341658728,-1.59946478172638,-0.006051926583529,0.0123613959316558,-0.0042536769207127,9.57360535238818,1.02208128633895,-1.92957724976802,-0.0050434721521861,0.0186075651316856,0.0018362360122227,9.64310552406471,0.733520931373065,-1.7390339608299,STAND
3.1,-0.0029531803289098,0.0059285517612314,-0.0034707695638187,9.66144804726612,-0.620266968617345,-1.59851355558331,-0.0045397460292254,0.015416081310529,-0.0040986527185548,9.5986735383996,0.974038891496396,-1.93074361232213,-0.0080903664991426,0.0187876024253843,0.0018019223306427,9.60066877840836,0.787661536941676,-1.73627721761073,STAND
3.11,-0.004648666363661,-0.004510751148488,0.0002570430434306,9.63808085665104,-0.598432847255042,-1.62628544229832,-0.0061180409025987,0.0184031816134553,-0.0024946156231046,9.57554751917564,1.00054853160696,-1.95271015524233,-0.0113102288553668,0.0173276283588148,0.0078482439559512,9.62458739565879,0.783555364374284,-1.70952416221128,STAND
3.12,0.0029249412849433,-0.01079550944338,-0.0007992825800228,9.66134866588936,-0.620011002609885,-1.59921337961246,-0.0045638970116951,0.0046217027301739,-0.0014615424374481,9.52767921682405,0.927544321098429,-1.95961590240935,-0.0145778740932265,0.0144030509266951,0.0108064433697329,9.59633602370819,0.73918264539683,-1.75925102120107,STAND
3.13,-0.0016840464349445,-0.0105390981487513,0.0022051608765035,9.65809887835286,-0.652558924724808,-1.47287613888582,-0.0061001840137591,-0.0092275768419592,0.0010197255192739,9.52689838477373,0.877098899593929,-1.93923657337973,-0.0148249180286002,0.0098633662297039,0.0091833102259316,9.59947903465427,0.762707222044777,-1.75696297312843,STAND
3.14,0.0043797051827508,-0.0135603332049337,0.003981046284251,9.66057164882985,-0.586655132736555,-1.53196267809965,-0.0029808135291502,-0.0152605274029433,-0.0006643613484673,9.52666243966779,0.877170040946842,-1.94036321350472,-0.0091785672364073,0.0018871893314529,0.0090946856957003,9.59107806585577,0.689366266576321,-1.75936190984404,STAND
3.15,0.0228109818637723,-0.0094203258754163,0.0007989323197317,9.66003526880625,-0.583905641695237,-1.5087904559228,-0.0075749623308916,-0.0122230918561522,-0.000659744302995,9.57419876015227,0.851379177856676,-1.91678941069917,-0.0032001649696018,-0.0014312747579345,0.004517120536488,9.61536547473838,0.685937690434981,-1.75873440095379,STAND
3.16,0.0198345556698772,-0.001569713435126,0.0033193121778981,9.66163287360894,-0.569811461920298,-1.58498593728951,0.0046013347682216,-0.0045625720202568,-0.000063968278668,9.5491889249727,0.899984411662499,-1.91501481083654,-0.0001578622997809,-0.0030164321044889,-0.0015919823621462,9.59042134400035,0.687764961575617,-1.73511286418687,STAND
3.17,0.0199800026818931,0.0073652036159476,-0.0003248051862842,9.66000791715001,-0.615464856970628,-1.55401402315409,0.0060690698880973,-0.000041891300645,0.0016746603110468,9.59627150827416,0.946870519936612,-1.88480242523368,0.001297235756988,-0.0046001592130358,-0.0031344183129437,9.59319844247001,0.712206293260165,-1.73446226408102,STAND
3.18,0.0047313844033232,0.0106005011714066,-0.0006592543148815,9.66046137067795,-0.588211978006581,-1.53206109023416,0.007722566478828,0.0047745958913646,-0.0042083008100268,9.61877425387563,0.894539908235682,-1.83857657303212,0.0056672184857624,-0.0079468026793657,-0.0016174493202769,9.59239661611852,0.711428073626782,-1.71070252501288,STAND
3.19,-0.0091533440338396,0.0016366355226637,-0.0001812142603847,9.63685328973818,-0.593932628922066,-1.58031697842702,0.0046694510640438,0.0047659042209506,-0.0042835592925843,9.61786705083234,0.868605393797022,-1.81574068925148,0.0056672086079929,-0.0079467964683444,-0.0016174204240623,9.57087099141702,0.73859450740142,-1.71104632018746,STAND
3.2,-0.0152595762714517,0.0033354685100586,0.0011873589876654,9.66160133786055,-0.567001383826889,-1.55870380899589,0.0137761226186017,0.0000985401939387,-0.0011853128001749,9.54545949362957,0.918847369550083,-1.83975662666284,0.0041437836566937,-0.0078565066210631,-0.0016348491128448,9.57358205058943,0.762891069039985,-1.71082309243465,STAND
3.21,-0.0031611734809249,-0.0075745445162848,0.000471828620343,9.6368511689571,-0.593722632207326,-1.58040883196145,0.0123166828955798,0.0017372698725795,-0.0042129045350861,9.54783109537718,0.92263129122932,-1.88841334467643,0.0103059182817652,-0.0067240593609925,-0.0000053266081163,9.49703513104789,0.725868693364889,-1.78842868984208,STAND
3.22,-0.0062300247907943,-0.0074363799912806,0.0019674892709346,9.63440069373808,-0.663160489698604,-1.5474041516945,-0.0029859537940451,0.0016340548973036,-0.003065379276841,9.59874293095374,0.951280103957566,-1.93263802071939,0.0107743690723026,0.0009206036777415,-0.0013748855147884,9.52322420163796,0.72567968991245,-1.86138661003157,STAND
3.23,0.0014681077703742,-0.0063092372677219,-0.0026330129537816,9.66001678056716,-0.61530641540558,-1.55402165926663,-0.0014814586365579,0.0062141079549884,-0.0028518957087381,9.55025812254673,0.926980593632172,-1.93652458621171,0.0032523735880618,0.0043005521678002,0.0047139426140333,9.49685993381761,0.704985111922943,-1.88714066319293,STAND
3.24,0.0137814983073198,0.0013512483771585,0.0000209405471356,9.65998628704574,-0.615298763220082,-1.55421422009406,-0.001429031049979,0.0109075137553078,-0.0057246654413424,9.55396310349384,0.933067451979405,-2.008629756193,-0.0118502157950812,0.0067851861188665,0.0015152596303299,9.53621093892698,0.62538982158345,-1.8641159795218,STAND
3.25,0.0290303237942183,-0.0018840613391275,0.0003548710558321,9.70549443837006,-0.737842864401902,-1.53729522962305,0.0046617508591693,-0.0013938007057812,-0.0029937474362458,9.52987184849729,0.908965572553916,-2.01127246136872,-0.0179860126033608,0.0070875828747491,0.0045017600894166,9.58987842704669,0.667119604258476,-1.83582981774771,STAND
3.26,0.0322546192602493,0.0085346830193785,-0.0033640200093156,9.65775529631942,-0.715967844254096,-1.56500350019461,0.0077746197834237,0.0017834603031195,-0.0058495551859853,9.52864153467013,0.907380634324143,-1.98699825283372,-0.0103216479243756,0.0080998074996993,0.0076773467587174,9.6151299935336,0.685298170391875,-1.76027046849455,STAND
3.27,0.0414607071911324,0.0098426134052817,-0.004905976576569,9.68434291159187,-0.674799237463767,-1.61823251883998,0.0046692904013569,-0.0029189720026591,-0.0030521777311535,9.55345301271729,0.859146115192782,-1.989640602379,0.0051812892357883,0.0117648867262019,0.0079485928233628,9.64532036909504,0.730152554577559,-1.75669806200835,STAND
3.28,0.0353039073425276,0.0068735638706892,-0.0047588994804634,9.70952553295332,-0.620718221368526,-1.57476876354748,0.0093012256037136,-0.005896718238887,-0.0045800566915565,9.54927333332951,0.902419812005299,-1.91344717782939,0.0158876312960729,0.0111908531714617,0.0050159049907076,9.69690543620452,0.747787399729675,-1.7535215142889,STAND
3.29,0.0307376715351182,0.0084528074025088,-0.0049005914962681,9.6635426174148,-0.553458628075573,-1.63275852757808,0.0046994055150266,-0.0090198048349813,-0.0032858562383099,9.59810412191903,0.878618713589055,-1.91367784485716,0.0247161141301596,0.0060198518559326,0.0080833451294215,9.69860544918252,0.769144190178019,-1.70305366792891,STAND
3.3,0.0122658514154637,-0.00045530845141,-0.0044581907560708,9.63721457367871,-0.594656541546131,-1.5778396331751,-0.002947811772982,-0.0136775070721414,-0.0021251305886341,9.59713756584985,0.951885811056718,-1.90917473147058,0.0245365012761527,0.0029738271785098,0.0080203437856575,9.70584761018654,0.818256402645646,-1.74956748808548,STAND
3.31,0.007481540471655,-0.0122736331745668,0.0008782022623476,9.63808059634547,-0.543016757702739,-1.56066360925315,0.0016310297401312,-0.0059786826965382,-0.0032446647919268,9.59859448911755,0.905349790696721,-1.93815835824748,0.0227649935036087,-0.0014755342672699,0.0063802929148734,9.65813351563032,0.823858865394175,-1.77521521722698,STAND
3.32,-0.0001937940932101,-0.0153258514752919,-0.0005098347082327,9.638910551795,-0.552821397116978,-1.63455930299714,-0.0060842647230858,0.0030901946075295,-0.0015576668682712,9.55047599646436,0.955880703359476,-1.96125548491654,0.0212201408642762,-0.0014137607118622,0.0078907300477791,9.60395405270149,0.780122897541715,-1.77866705860533,STAND
3.33,-0.0047522074016029,-0.010397278582606,0.0037136377996699,9.66174941810173,-0.57124205846633,-1.58376010329159,-0.0091963124229279,-0.0000871498219348,0.0012989487959404,9.55074714296867,0.931701706473412,-1.96290830991392,0.0133548431326276,-0.0055005273404062,0.0061801285674282,9.60394740211246,0.779139702682811,-1.77913385786789,STAND
3.34,0.0012930691226318,-0.0166640065359575,0.0026496561531756,9.63577555179049,-0.588624979907425,-1.53388006103999,-0.0030919634173382,0.0153013378798925,-0.0010143195432641,9.52840242309047,0.984100623082823,-2.00821067938463,-0.0015402483231388,0.0014705412694458,0.0076538804011448,9.6039654131781,0.778370287570656,-1.77937338806908,STAND
3.35,0.0044733718077041,-0.0058416723926914,0.005012614498707,9.65969260343031,-0.647751508820047,-1.60064376912677,0.0060748254709002,0.0138045411435439,-0.000846797460795,9.47753609962128,0.980096651000878,-1.96062597562635,-0.0123152357130891,0.0005545683636937,0.0090261693746032,9.60404831606013,0.777692574585637,-1.77922224905406,STAND
3.36,-0.0030800811347574,0.0019666706454985,0.00596257797141,9.66093744640768,-0.599912502014427,-1.60729312571742,0.0015257030556091,0.0076895402812982,-0.001194090211012,9.50236439533885,0.955929301302312,-1.96030536839464,-0.0213653199287689,0.0026229386237123,0.0089503422473176,9.57991236592704,0.780032539904627,-1.77950841137425,STAND
3.37,-0.010642559973231,0.0064256536217914,0.0025473666265644,9.63557996851965,-0.620555991873724,-1.5799254772114,0.0031133410911157,-0.0045073349177933,-0.0016240426219282,9.55283193229667,0.909517850455699,-1.98580825621826,-0.024459446278197,0.0013397049313378,0.0058272874229876,9.60711978147052,0.801049702794539,-1.77756954131242,STAND
3.38,-0.0137319049948915,0.0050427144368446,0.0041445615776738,9.68345662187746,-0.642851725396726,-1.55117385871404,0.007700570014244,-0.0060182485724514,-0.0015690771469269,9.55032785333574,0.905808369306463,-1.93773507878191,-0.0274419492117426,0.0016090653087468,0.0012073883502058,9.57937437180538,0.778924432260792,-1.75440970133524,STAND
3.39,-0.0136806372925196,0.0097114222614331,0.0053639429754998,9.65913770942184,-0.642491404412834,-1.55097441846479,-0.0015265298159424,-0.0000047753244588,-0.0000377594511169,9.57534812487102,0.956537201927066,-1.95742269441874,-0.0273089055067341,0.0031907395233755,-0.0018170355301843,9.57941409436637,0.779433856021097,-1.75396651473163,STAND
3.4,-0.0182155814110674,0.0127122432490894,0.0035992073635397,9.65893762614983,-0.639445506492348,-1.52579714051927,-0.0091811553087024,-0.003137763328518,0.0011809402750765,9.54855628978407,0.952679104843198,-1.91010347417352,-0.030488880400493,0.0017907810655011,0.0011720195375725,9.62929416586114,0.776050907133971,-1.80113747741309,STAND
3.41,-0.0184028634417294,0.0007349461157411,0.0074511146644702,9.66032936682474,-0.591315637204058,-1.53169862341665,-0.0028954185474146,-0.0089843855369062,-0.0049992290253617,9.54653248903406,0.900535762749475,-1.86573879175104,-0.0273563042244321,0.0017277841144344,-0.0049046823580014,9.62931135730308,0.776751500322986,-1.80074354258363,STAND
3.42,-0.010694302274563,0.0034820641320879,0.0042719994449842,9.63728194765613,-0.573301463599203,-1.58362139769183,-0.0075724595902584,-0.0045407849034007,-0.0018881340696132,9.57170166090451,0.92733749885782,-1.88757531735106,-0.0213016081309627,0.0027070705076722,0.0043677445948114,9.60154800372411,0.75494107010704,-1.77755747573178,STAND
3.43,-0.0092593262811041,-0.0025260551283239,0.0062105983292376,9.63760630108523,-0.576869795301706,-1.60783068257287,-0.0197784324604404,0.0015803960571707,-0.0034792898961662,9.5728365965288,0.929736545729589,-1.91190241028409,-0.0165510588157671,0.0054799777925469,0.0044861536645919,9.62300602208422,0.727723621467084,-1.77749180090574,STAND
3.44,-0.006128664220111,0.0036262035488605,0.0073580923730316,9.66232524193828,-0.581234504005003,-1.63158892872083,-0.0214551500218668,0.0090245299151756,0.0013494737675957,9.59874761063815,0.90793539192306,-1.9361895386099,-0.008887040088601,0.0064871311541502,0.0076641561370694,9.59315675333402,0.681832613386993,-1.77947697616932,STAND
3.45,-0.0137637011157215,0.0053459885369475,0.0087126055571048,9.66235169902809,-0.581848644615107,-1.63121331203966,-0.0215156403394935,0.0135409815158931,0.0030503564617857,9.54783490660844,0.904044973946945,-1.88870352408382,-0.0045407707032099,0.0031071569962126,0.0107087038106862,9.57195695361889,0.708202732999201,-1.77849779926941,STAND
3.46,-0.0245187335848117,0.0008134303451381,0.0073961732760695,9.68402349401821,-0.618472198636004,-1.52739277309686,-0.0245831173357388,0.0088966208830227,0.0043218853713101,9.52489108917626,0.905875849077564,-1.91294475932869,0.0012127643760655,-0.0033192460721692,0.0091212941027297,9.5477924043272,0.710197134883611,-1.77906662422536,STAND
3.47,-0.0352947179926322,-0.0052410277216343,0.0061793911679925,9.68362260969249,-0.646072653380154,-1.54879764275737,-0.0107607356208851,-0.0001522117339385,0.0027833081677705,9.55107594330234,0.859252101527192,-1.93925589573576,-0.0007413323488376,-0.010812480837372,0.0074118863812761,9.54992629774912,0.732654800721637,-1.75431394289147,STAND
