time,left_angular_velocity_x,left_angular_velocity_y,left_angular_velocity_z,left_linear_acceleration_x,left_linear_acceleration_y,left_linear_acceleration_z,right_angular_velocity_x,right_angular_velocity_y,right_angular_velocity_z,right_linear_acceleration_x,right_linear_acceleration_y,right_linear_acceleration_z,pelvis_angular_velocity_x,pelvis_angular_velocity_y,pelvis_angular_velocity_z,pelvis_linear_acceleration_x,pelvis_linear_acceleration_y,pelvis_linear_acceleration_z,label
0.01,-0.013178723339696,0.0078578499273037,-0.0017455724916037,9.53019949438381,0.586262686932021,-2.22661009261319,0.0278034738365192,-0.0075864465867623,-0.0034219141055986,9.5821263833332,0.069285191612667,-2.37373714518305,0.0179545921422785,0.0089323673481182,-0.0044798112756469,9.61578696556473,0.729867847934928,-1.49055626759733,STAND
0.02,-0.0086454803447912,0.0010226054185935,0.0019152568809181,9.47299526679991,0.492594216235069,-2.28439534909367,0.0261424656211837,-0.0012837864671217,-0.0030489565893942,9.57068771309682,0.099892956148165,-2.40068696522574,0.0234310994584864,0.0035128333175188,-0.0012395763929514,9.5619860280296,0.751028023886674,-1.53497511637765,STAND
0.03,-0.0033830651163648,-0.0035301154379546,-0.0004548019359877,9.48151514171927,0.455871689917951,-2.31542979169851,0.019796012607606,0.0121997410262429,0.0033824546638278,9.52153184303221,0.0020456790680241,-2.42517513735739,0.0247828116705816,0.0071932077720026,0.003265529375609,9.55275926826593,0.742799975577348,-1.56697164902578,STAND
0.04,0.0065321851679918,0.0008358189425231,0.0020538496945998,9.49279141335703,0.434954449281918,-2.36475421988092,0.0060768958562138,0.0228156386525156,0.0075818880814889,9.5091712360059,0.0192605319259035,-2.39699773079908,0.023022519498209,0.0224824142124293,0.0114700076644916,9.59361875571022,0.734645656374984,-1.63103309972488,STAND
0.05,0.0150393607109882,-0.0050141268066877,0.0006520186083823,9.49402143432046,0.47763566955248,-2.26174835704236,-0.0135658248606853,0.0320758231355946,0.0101060736292657,9.43123240549105,0.0650112545844218,-2.39652185352703,0.0192359943902958,0.0327557165923601,0.0148014887576504,9.62556658910644,0.721439578341791,-1.6716614911505,STAND
0.06,0.0165192656855089,-0.0077580243557102,0.0020827230164356,9.50192794294428,0.602555374597646,-2.21671455008239,-0.0213471595043398,0.0163406731015031,0.0093232170733526,9.41571140391722,0.0078971637407445,-2.47588507853816,0.0059160975383923,0.0438539292733157,0.0133647264480467,9.6894274491587,0.706474411798817,-1.5908046769528,STAND
0.07,0.0244803926127193,-0.0076321671330082,0.0063149696026625,9.5606156257062,0.66124442986263,-2.15655934676809,-0.0270595926097437,0.0071719858905452,0.0067182014340707,9.46179611841036,-0.0062388416643945,-2.51060688334677,-0.0111092501939176,0.0470981321983073,0.0080071680860276,9.73640740720552,0.734535066771538,-1.58818537177735,STAND
0.08,0.0110583071741315,-0.0005344230267048,0.00657929686907,9.5477706163174,0.715463516186618,-2.11068308697303,-0.0361707470451353,-0.0005131482198813,0.0050213502193225,9.44167985220427,-0.0280978687279528,-2.52749218410149,-0.0260631511243422,0.0440807938709108,0.0016682334997697,9.75402886320371,0.691880074942715,-1.50451597170775,STAND
0.09,-0.0089501884885035,0.0077607145466348,0.0055379804902272,9.59008695995766,0.693032536822648,-2.18836824074019,-0.0362474185573576,-0.010846287608515,-0.0010602825660131,9.4571264216599,-0.0561492072109212,-2.61332226545084,-0.0351898113851875,0.0323838075341672,-0.0038240070041298,9.74536921839995,0.687932950325724,-1.47842624023592,STAND
0.1,-0.0360797055399703,0.017767361938865,0.0079595680180579,9.55548160781604,0.627527630401491,-2.11885639542508,-0.0187223536239424,-0.010865569413465,-0.0013699483746693,9.48814935733375,-0.10084411178591,-2.5234136970991,-0.0389129877062746,0.0269478658220743,-0.0108097948055464,9.73652409928148,0.684671940557897,-1.45313599338715,STAND
0.11,-0.0439989521422877,0.0265381585549308,0.004709057687514,9.49843061178357,0.618636682224289,-2.19856278075919,-0.0011545849894849,-0.0124485259295816,-0.0018675091750277,9.50806091298046,-0.0783549182574694,-2.50732077784765,-0.0361518499964995,0.0196054798776276,-0.008350811194927,9.67381363693778,0.702850798442013,-1.47347319504183,STAND
0.12,-0.0522897451026781,0.0242586836010469,0.0031162119152965,9.49095003085516,0.493951753429021,-2.24166140953043,0.0126416221847247,-0.0127332806402261,0.0000126961478826,9.48346865481929,-0.0660697894573122,-2.46120010858224,-0.0263055215039424,0.0223675812011759,-0.0045679733272384,9.63169225422044,0.646525958718933,-1.50068726976215,STAND
0.13,-0.0453159205981117,0.0286502907923779,0.0019017737507339,9.46375203369737,0.441849523641094,-2.45313895273696,0.0200158539166473,-0.0090789197172304,-0.0039979931477032,9.49174277780256,-0.0865038619183486,-2.37697826922954,-0.0151117289243726,0.0257908002255181,-0.0075697061784144,9.61899219674456,0.668036986984283,-1.49944271828054,STAND
0.14,-0.0300856695508297,0.0264277278432916,0.0012970037772946,9.44205589871775,0.406808767390922,-2.45253921825796,0.0171943277128825,-0.0017661243013406,0.0009677452680158,9.53738890449321,-0.100759350688777,-2.41334113566512,-0.0039027751129818,0.0288060778025841,0.0000225689330242,9.60091378814054,0.656279345997307,-1.50699108088526,STAND
0.15,-0.0182871161163361,0.0172448047306438,0.0001145291225618,9.46932947936143,0.332479558312207,-2.31576917202541,0.0124616086992386,0.0220129037488383,0.0011823569262052,9.55895474664792,-0.139441144874038,-2.35363343410932,-0.0008608421632063,0.032904381002524,0.0066498108083154,9.60892304116127,0.605671326063598,-1.45732984110683,STAND
0.16,-0.0047769429967291,0.0115410444987044,-0.0007777717430653,9.51740653653877,0.335629347347666,-2.30454576106111,0.0085212236420883,0.0295629484152077,0.0043066581980617,9.51247467728697,-0.102288010269946,-2.30957035668325,0.0015122261926299,0.0336560393996365,0.0053747241465868,9.65018769458882,0.601278338173826,-1.46479046183498,STAND
0.17,0.0193342216578432,0.0090557807399898,-0.0052989318256405,9.54579301019903,0.318805102222317,-2.31417225789853,0.005200598730973,0.0421700880121953,0.005053199102831,9.48051153666871,-0.0703392382684018,-2.34412104124809,-0.0001877022838001,0.0332373323858917,0.0032638727277467,9.66381763225054,0.577063214200176,-1.51484321871843,STAND
0.18,0.02419525846154,0.0098394306877243,-0.0034095139939246,9.54842049193504,0.412024625557499,-2.230968332571,-0.008131288289345,0.0252646316751763,0.0011184368431012,9.42680638792177,-0.0730593842296233,-2.34309566492534,0.0073118148664659,0.0288073040149061,-0.0036672501003614,9.71046908126958,0.606094277131136,-1.51346214095962,STAND
0.19,0.0301269102669941,0.0205334205972923,-0.0093185926801194,9.51627592539668,0.447354031151469,-2.20357757735578,-0.0082898204549766,0.0180549045410232,-0.0045898596445216,9.4416688090893,-0.0778110008317314,-2.42058580844595,0.0090133585460917,0.0282222005048272,-0.0053156861701201,9.70171389830878,0.598686952251861,-1.54312480777173,STAND
0.2,0.0300266145868083,0.0246004135569265,-0.0078197773274983,9.5711493729769,0.525348598484207,-2.12487762036646,-0.0030312163474355,0.0159166242404855,-0.0003491057303925,9.48481040898686,-0.117262418557021,-2.34875000384946,0.0134483699256807,0.0251289106324565,-0.0106391677212987,9.72594440758509,0.644433409777401,-1.52130456247548,STAND
0.21,0.0255574527541692,0.0294061877144915,-0.0122313681619418,9.51687126924372,0.617375384550087,-2.24660864262154,0.0087410359033855,0.0082906348004064,-0.0030738307750739,9.49947384860462,-0.122271811224725,-2.42712063202097,0.0209549068757576,0.0202913982708433,-0.0069741472058773,9.71336782219557,0.66244943862264,-1.57494964903141,STAND
0.22,0.0132322251160067,0.0281711953581006,-0.0080266136589522,9.50452313132653,0.673074982561785,-2.19758456323964,0.0111430106074031,0.0166054964233793,-0.0061721303223223,9.50713358155282,-0.0819435150260902,-2.3822020748096,0.031513783454665,0.0165361732364689,-0.0079737563980445,9.70786030215616,0.771083898293414,-1.63441384613905,STAND
0.23,0.0183929898080939,0.0276855893480563,-0.0088932479279463,9.48553130086592,0.653694141117088,-2.21544300379819,0.0200468031882755,0.0178581186422988,-0.0037466522625007,9.51619774702241,-0.0654013335458018,-2.34256444706542,0.038285496955662,0.0206385193537721,-0.0025698937714858,9.65451270037906,0.792219921241695,-1.67805727037129,STAND
0.24,0.0182011404496047,0.0248915507370545,-0.0076318017875808,9.46802860109711,0.599848084562915,-2.23070001083356,0.0231134351269188,0.0146295899422691,-0.0033722760614119,9.47335135536357,-0.0989838953119554,-2.31669612229219,0.0362202761677503,0.0244865069669218,0.0014819425911011,9.65098494357126,0.820022605801655,-1.64506487140072,STAND
0.25,0.000614949548509,0.0227438499622242,-0.00193578061036,9.52583355335123,0.6092623075725,-2.14625115267929,0.0253530974488405,0.014946318106498,-0.0059343104320042,9.52818817772337,-0.0966281686899362,-2.31304161949208,0.0246480967497546,0.0267415767743142,0.0038023685788655,9.60134218078386,0.818574187624712,-1.6101736294367,STAND
0.26,0.0019550634129114,0.0097067105976187,-0.0008551616649537,9.53462695382223,0.657322614521078,-2.19942418851821,0.0249686960231186,0.0290156752705033,-0.0042624048136546,9.56930923235385,-0.0159171582931537,-2.32380223392068,0.0130820390706853,0.0275887518510346,0.012947058648943,9.60383502591573,0.7343362325646,-1.56990361139954,STAND
0.27,0.0007348525943758,0.0077476978207607,-0.0051637250975926,9.58272627470113,0.575734509188382,-2.1648801142663,0.0236721794677765,0.0347203640744198,0.0008830091145528,9.54594523110055,0.0326613962331606,-2.32084052523242,0.0056105746143715,0.0265822351858449,0.0116379547880392,9.61759960743975,0.709116946604427,-1.62056765076912,STAND
0.28,0.0020528115109435,0.0111042092519539,-0.0014858907840826,9.55059013613051,0.526617233881799,-2.11423658565867,0.0280250848174458,0.0250057426525192,0.0023606252079241,9.50369926989742,0.0350620367210817,-2.34102988061949,-0.0073252820467834,0.0295899855021002,0.0139035188666911,9.64785226619323,0.641556338262946,-1.59185802735317,STAND
0.29,0.0100709464111336,-0.0017322966325749,0.0002819262051284,9.50860787745917,0.555609364908644,-2.16022308760754,0.0172568258798885,0.0236193128614584,0.0010233966676326,9.52705343488926,0.0090926174319737,-2.33290199667808,-0.0232904360058678,0.0284936001858965,0.0095361992807077,9.65179553367052,0.6188188621135,-1.51106390011719,STAND
0.3,0.0110509539703944,-0.00599843518054,0.0057349895957538,9.56430192013257,0.598666946225038,-2.08116904347543,0.0062850973113935,0.0157953402217822,0.0004125832037945,9.46311971669658,0.0134718042231864,-2.36560317751411,-0.0225570041859678,0.0195546127552463,0.0078056481628533,9.63012846383162,0.631181153871796,-1.54229690377621,STAND
0.31,0.0142936285349554,-0.0072951342850077,0.0067091962807832,9.60326038172832,0.637513055308551,-2.04106103637762,0.0021769206205265,0.0153494179169354,0.0040662674659243,9.48363161953202,0.0352903373848329,-2.346908617269,-0.0167399699993208,0.0132878509390174,0.0055979389009199,9.6485617923551,0.646354797646002,-1.47579463432466,STAND
0.32,0.0244048550430856,-0.0001317855616673,0.0079721605291622,9.59498351218565,0.680459448813518,-2.13492574500805,0.0032160594440619,0.0039885375187583,0.0060815031128428,9.48684451861311,0.0238676925856328,-2.40472109035844,-0.0157174401503266,0.0123721388716727,0.0073416342468483,9.62277974707168,0.687210697739905,-1.47704102509705,STAND
0.33,0.007490876580739,0.0129672879199398,0.0101109942663967,9.57240702082094,0.636205611325031,-2.01229670858818,-0.002993559574971,-0.0006798890711491,0.0054955518214187,9.5063296505737,-0.0276178626931619,-2.29264950170573,-0.0072139069806485,0.0114527082454258,0.0066347035720592,9.6024096286287,0.760835888795546,-1.46938656440309,STAND
0.34,-0.0085579208323696,0.007885295487841,0.0021317590554585,9.48852027623637,0.693728782226395,-2.10413540089615,-0.0106511567552399,-0.006860287712068,0.0043499288949549,9.54189895405111,-0.071290286559592,-2.31361765195264,0.0026849931994515,0.0039375709759859,0.0083317374697699,9.57479765110504,0.743372174604493,-1.45685150727223,STAND
0.35,-0.0139128375241195,0.0055777321122222,0.0042577974884834,9.46066836758869,0.625887567472048,-2.06909296797629,-0.0198086267487387,0.0012652136441019,0.003027223536355,9.53026827746121,-0.0769186189525065,-2.29314327304217,0.0108574056204327,0.0004348738127051,0.0123818442080213,9.56762788400127,0.792556270888441,-1.50346726675345,STAND
0.36,-0.027271143090905,0.0051780498600528,0.0028836301959997,9.48244915285882,0.533960362203957,-2.1456934368842,-0.0154739629840448,0.0200560325893068,0.0049056970217643,9.50178366545016,-0.115499035119558,-2.34735625392355,0.0241639070322966,-0.0096651618385144,0.0176137050054497,9.5124041553598,0.754077200037053,-1.53497438553636,STAND
0.37,-0.015874847809106,0.0013360303930225,0.005979159485262,9.52938125659763,0.493808448212761,-2.2385834870695,0.0022418242365064,0.0256929362227993,0.0101442800740771,9.52639761931357,-0.165049423103399,-2.34505743251021,0.0194298411838029,-0.014588620662028,0.0194568667364024,9.56070056034487,0.694598386169776,-1.55448106448508,STAND
0.38,-0.0090973389084849,0.002932845381239,0.0060357228016652,9.54033342327193,0.550150385378634,-2.18698919786124,0.0010125827251738,0.0314027788390303,0.0026129218917298,9.49495301781989,-0.229994749910993,-2.29150629405262,0.0031144841674086,-0.0148323028942463,0.0205448962684332,9.60502337584182,0.663507474756411,-1.54306103663688,STAND
0.39,-0.0010424108007338,-0.0010102083453431,0.0087872329645071,9.60914086222883,0.537884108865321,-2.15372886484182,0.0071448700650367,0.0249431579429251,0.0033727544397845,9.51784290308115,-0.15885858456095,-2.37193394339577,-0.0111938397016714,-0.0086472148795157,0.0196965878632028,9.69533494756011,0.664885457821411,-1.47827117589237,STAND
0.4,-0.0141058417503528,0.0027842405781948,0.005520246724904,9.60919842024376,0.537359820280139,-2.15360292292663,0.0254214284615231,0.0252917971197116,0.0001654152045055,9.5788313830876,-0.0930579484438338,-2.31776605132109,-0.0211084093494213,0.0022979978124672,0.018703102364348,9.77696873482254,0.655482736411001,-1.49947409216977,STAND
0.41,-0.0141101890197078,0.0082490683618105,0.0063865039848975,9.58265238551049,0.519669735824834,-2.1397360331217,0.0319298599896919,0.0190154349372896,-0.0005394768000566,9.51195006077719,-0.0780758723020015,-2.29157299393058,-0.0306914898806655,0.0144173147538515,0.0197839775569368,9.75672414813794,0.728145201711091,-1.49205890431725,STAND
0.42,-0.015437645722023,0.0158230316116159,0.0044410736938225,9.53237945174037,0.500612810069858,-2.13022417878619,0.0256339983053533,0.0174760095393041,-0.0007598596049828,9.54452180374126,-0.0144146809362871,-2.34066356147508,-0.0290236022220179,0.0220909525000543,0.0127180046665345,9.71448330862789,0.672880040278995,-1.46521111391648,STAND
0.43,-0.0217168597467891,0.0157507018961266,0.000364125906159,9.53507007080695,0.509398990816033,-2.02258338163606,0.0202535819787149,0.0354345634947517,0.0080393323370513,9.49917551489225,-0.001232862508207,-2.30255877851133,-0.0262874194219151,0.0195789272946652,0.0090474477905661,9.63330196499899,0.680028067296307,-1.44203091299203,STAND
0.44,-0.0150376096479386,0.0159488454988914,0.0010530413123078,9.53022202441576,0.485105749397333,-2.10880140320665,0.0110971514224078,0.0435641392645308,0.0067042957010294,9.37410997107391,-0.0402531432819621,-2.37962362053452,-0.0170898438422879,0.0179748670343093,0.0011808107664572,9.57469592944582,0.668327065276303,-1.49441821693388,STAND
0.45,-0.0092025300462011,0.0124638662767425,0.0084006867118672,9.50235519669852,0.501868933960476,-2.09690630920159,0.0157287182257609,0.0514159893960341,0.0072879516614861,9.41892505559236,-0.104582047201018,-2.31027913335487,-0.0116249976267477,0.0139568794110518,-0.0023992190383655,9.56555405960486,0.664080119862062,-1.47070951622816,STAND
0.46,-0.0026230899249101,0.0112636857661756,0.0097205903447951,9.56167135055917,0.652752491579015,-2.1823648065993,0.0368652756523163,0.0420968697991921,0.0052140039878096,9.43456219620748,-0.24427411014043,-2.24878254777684,-0.0047817229840766,0.0043479541860344,0.0001898459310976,9.57865243006384,0.643662922384822,-1.46849780675498,STAND
0.47,-0.0106760778359301,0.0206752785007762,0.0078361854609764,9.61412202484858,0.636518962628325,-2.18627916452089,0.0405222302576454,0.0312300740460887,0.0032144580816277,9.54698096672819,-0.288079883021463,-2.25153935452914,0.0040529256674941,0.0045922971684883,0.001554248209371,9.62497196430006,0.672555803294627,-1.46948359165379,STAND
0.48,-0.0226590055180117,0.021603194189485,0.0093857446317565,9.63423985381949,0.571081453163885,-2.13997386714756,0.0414065703514488,0.0269031122093469,-0.0002701384300986,9.62485075338823,-0.311980454452326,-2.24016125669502,0.0054045169031276,0.0048459340042025,0.0053697546529763,9.70271852705554,0.69270308629504,-1.45885952421544,STAND
0.49,-0.0207337064088306,0.0114856624843869,0.0058109385385038,9.5897958299949,0.583987194230034,-2.16646850803345,0.0565750617925464,0.0320491399780744,-0.003656805233983,9.68634038697186,-0.209995460836223,-2.23284844957808,0.0013019746825276,0.0081115311852308,0.0089980870358202,9.68989418945264,0.712601996819789,-1.45953948561532,STAND
0.5,-0.0142016155063965,0.0013881335791747,0.0061425613287709,9.54302160641787,0.418889524805459,-2.25268462337445,0.0597142243928218,0.0399577412669899,-0.0034542390633007,9.69407109311435,-0.074111931726181,-2.27494996899287,0.0029822415309398,0.0133679687625381,0.0049949049178148,9.72730492075921,0.733150737274075,-1.49233977551245,STAND
0.51,-0.0133037323724806,0.0030402264036895,-0.0012637408168164,9.54314324582516,0.33417803510639,-2.22876170275147,0.0516579833163459,0.0621231229655519,-0.0027934800020162,9.60755583605067,0.0149236365866043,-2.35280168196205,-0.0058583927552717,0.0117124450837259,0.0104599693564329,9.70330376229632,0.690518169345382,-1.45600013483504,STAND
0.52,-0.0017682507991124,-0.0014467904265119,0.0004563859229141,9.53448747214726,0.371131842068055,-2.19769900623393,0.046940256385569,0.0693361727278999,0.0032261410986795,9.47003364087716,0.212812541454231,-2.37173185145655,-0.0109386532235212,0.0104576226145744,0.0041005284938369,9.67603854043868,0.670014978562789,-1.497627415705,STAND
0.53,0.0200813828599905,-0.006911278196405,0.0004556237371011,9.55678550953959,0.406688227557609,-2.19585365979684,0.0383502593693359,0.0571232244566491,-0.0005008712919947,9.38263794859224,0.228957699550047,-2.35386109150598,-0.0129561150365478,0.0064490871575399,0.0029693015614644,9.63896979037661,0.648593380631291,-1.4629202733728,STAND
0.54,0.0285275008317025,-0.0052685890103265,0.0006909819618538,9.53420229597544,0.455080467786472,-2.22247813486922,0.0086800298533283,0.0383941538407329,-0.0025544160862227,9.44288547785494,0.0034197293406783,-2.2320860441393,-0.012563530120226,-0.0012433675953662,-0.0039110012181754,9.66683120641716,0.665564656417891,-1.47431613961639,STAND
0.55,0.0266617999750815,-0.0081125933246945,0.0017776601845527,9.56297086695105,0.565099693568744,-2.15410480986372,-0.0100539230057779,0.0147955099545409,-0.0039632173883855,9.48668172499995,-0.122081077454342,-2.32509394438231,-0.0118353768704172,-0.0101837764901337,-0.0056571905439122,9.71142664027164,0.633964439370901,-1.51637650338118,STAND
0.56,0.0251417360575594,-0.0033322765619614,0.0010942587703429,9.57578745309714,0.594012142764079,-2.22491686382006,-0.0055839555619995,0.0027124034835252,-0.0090523352372674,9.51570625447595,-0.205157639660485,-2.38795659163014,-0.0033434195570019,-0.0101062822124225,-0.0025951473980759,9.73514889041371,0.679558304973934,-1.49790014259535,STAND
0.57,0.0225489080397926,0.0043196550810402,-0.004411321708222,9.55705885555123,0.616824926188435,-2.14218437375558,0.000634296897809,-0.0068784119999605,-0.0086192731548367,9.54179567679199,-0.240667141774971,-2.44069954720278,0.0071474680862923,-0.0025949026969034,0.0023063231675741,9.69426551566337,0.683447568142834,-1.48807658937921,STAND
0.58,-0.0009731229130711,0.0042687825896291,-0.0054522200373194,9.51521224189346,0.561448622083461,-2.16453240660275,0.0135116019544794,-0.0004755714655126,-0.0092542956037909,9.54260126121698,-0.140962473486307,-2.32770587110954,0.0223824827927495,0.0074188942997144,0.0084334944051684,9.65544661193972,0.744651552724702,-1.49178766989998,STAND
0.59,-0.0003481924523434,-0.0021589593037554,0.0026396619633181,9.50864030055298,0.57136948177406,-2.25501395060201,0.0223125148864565,0.0039233181883214,-0.0064309090227091,9.5228246726406,-0.0037606586145557,-2.27341363899383,0.0315459769561614,0.0088333600834629,0.0118752173731851,9.61520277089897,0.744001993769012,-1.53525249806986,STAND
0.6,0.0035904133131768,-0.0046052710239997,-0.0025310106375264,9.51003228081798,0.53694320251059,-2.25258065997846,0.041071087338529,-0.0010057329269494,-0.0053463780460359,9.52421246895082,-0.027654270477313,-2.2788333843143,0.0356530225479179,0.0031488279826701,0.0113128991475018,9.60789841584675,0.795889928755815,-1.52717913242084,STAND
0.61,0.0016187157333618,0.0020828220009273,0.0009216317536869,9.54757364416079,0.61097212680911,-2.21456752205082,0.0281343270163614,0.0084237545054556,-0.0043698012946161,9.52294256808799,-0.004244307122664,-2.2729189032727,0.0312428957019375,-0.0005987677003663,0.0152258830803674,9.62646069240006,0.806323428069501,-1.51698804348716,STAND
0.62,-0.0022158161387004,-0.0050030634560056,0.0037275005466517,9.49411446447917,0.575933656053081,-2.18825184247658,0.0202374331635635,-0.0026456547569954,-0.0045995920160275,9.49400459749683,0.0166804885043098,-2.36982617838845,0.0234416212102216,-0.0027659072793116,0.0118342173162152,9.67672500683957,0.80515954314835,-1.54989487418992,STAND
0.63,-0.0077651840218714,-0.0210339249614229,0.0053748087002551,9.54589730076065,0.560055681646508,-2.19493133182732,0.0123145609482437,0.0028819949640742,-0.010739851119003,9.48977296756778,-0.070918813862489,-2.42438110326076,0.0091733122922013,-0.0034200470493967,0.0095690483410077,9.73954759758584,0.787001772433851,-1.52704646215359,STAND
0.64,-0.0111028675824776,-0.0211316651468197,0.0050295816637392,9.55641163154662,0.531592202402134,-2.12177196393718,-0.003626448789319,-0.0002963084399036,-0.0105011832514338,9.49321471105638,-0.0812427740657775,-2.48289546447647,-0.0034240260745819,0.0021885012875485,0.0070657899333047,9.74706125731383,0.732619702719963,-1.53483356353914,STAND
0.65,-0.007810706458758,-0.0244644601340853,0.005255770098455,9.60081349533624,0.518136279407345,-2.0957112360663,-0.0005604644661749,-0.0035246521460288,-0.010101212959068,9.48500593977482,-0.0340252923545027,-2.36025625062814,-0.0081906836185753,0.0055299944292333,0.003482268619298,9.76525294661779,0.74765150613339,-1.46959146721578,STAND
0.66,-0.0126733777580154,-0.0143177099857935,0.0050957907702136,9.59033592802958,0.589016793071833,-2.06933519009708,-0.0024662255450285,-0.014026511759807,-0.0150560070441325,9.44204175309995,-0.0297989921371202,-2.38447024143462,-0.0177541621554844,0.0166484997045743,0.0007911213678054,9.72854941604483,0.723203968564451,-1.48907736824772,STAND
0.67,-0.0243099062506489,-0.0112282979224291,0.0040099756248076,9.56192384411537,0.605937306925898,-2.05995548064204,-0.021037345696533,-0.0176954523126568,-0.0107956752228825,9.54366046734104,-0.0637291046665795,-2.42411629830404,-0.0232201794650185,0.0206718634823471,0.0043716643414858,9.69709462526925,0.734924464189568,-1.44426542018095,STAND
0.68,-0.0337319331911297,-0.0031346007772564,-0.0008017478066786,9.54940433154001,0.584215295071059,-2.11461076841046,-0.0305620429697774,-0.0120858871423693,-0.004639633059524,9.53224956525152,-0.0316153773273754,-2.45239156006544,-0.0314437560981444,0.0368831562330013,-0.0006212565888596,9.6567319202998,0.739084585679713,-1.43085316399734,STAND
0.69,-0.0374667517638954,0.0021061553483304,0.0031128766908707,9.52554002732816,0.583450183724421,-2.11942737549651,-0.0227823864315865,-0.0105838376797955,-0.0040270026380664,9.50857947791009,-0.0415956019935991,-2.41206910446917,-0.0324982787132006,0.0422366580264474,0.0021198537603416,9.60396257576234,0.760881800281031,-1.4721918857282,STAND
0.7,-0.0306409203504644,0.0071301239715593,0.0032925169148408,9.47557703388638,0.572594170227319,-2.23479827903834,-0.0248380879187397,0.007480875688696,0.0040093572640203,9.47007650945039,-0.0464353053224326,-2.29146081778419,-0.0339011602542742,0.0498449338129412,0.0034987218487216,9.6505185129855,0.79318974407342,-1.41434049851094,STAND
0.71,-0.0241102226497276,0.0024958689445322,0.0044889488491654,9.51821657750223,0.55118629380691,-2.31208801115151,-0.0290587077908147,0.0125042284419696,0.00194629183439,9.50201793811056,-0.0183426826776898,-2.29397749315739,-0.0386647894075786,0.0483535844327372,0.006048261661059,9.67057963185961,0.799134356823753,-1.50792659888912,STAND
0.72,-0.0261240993434853,0.0002866576205533,0.0069547137135857,9.44384447962797,0.530994196525304,-2.30856185689658,-0.0265508741304784,0.0153577598392146,0.0045350043947476,9.52508966352633,-0.0432536353340179,-2.28655064168054,-0.0502465201404993,0.0506325512126582,0.0083612656781095,9.70226294735421,0.793764121396466,-1.43658625276567,STAND
0.73,-0.0349593183609114,-0.0069449459103436,0.009238373265944,9.47203077036755,0.429156571049532,-2.29568601750378,-0.0380024929888265,0.0247351130402974,0.0058971805370533,9.5089352693834,-0.0763444509583568,-2.36058696873056,-0.0543604694274447,0.053903933965917,0.0120057762482626,9.65383226838948,0.786722782784116,-1.5077268851547,STAND
0.74,-0.034312014901685,-0.0060513054143304,0.0038413521718639,9.55873542532681,0.471613277263199,-2.24521630665821,-0.0403432697860626,0.0275570945208067,0.0088136034685633,9.49441916213547,-0.070574517755808,-2.27877735757133,-0.0499496428564593,0.0528150697957269,0.0142393242378354,9.63579035800488,0.777135925694793,-1.45809417116154,STAND
0.75,-0.0248925632779396,-0.0086883427870175,0.009518965536238,9.49945304672164,0.40468173635987,-2.18301917889415,-0.0271226141005393,0.0333745430794615,0.0129642208593617,9.52682968128307,-0.0430868147136539,-2.27929337506688,-0.0540469328440928,0.0526599722373352,0.0171710136068949,9.64272193030411,0.806172509073782,-1.4979524644005,STAND
0.76,-0.0311664533576827,-0.0142128469737158,0.0045669210642934,9.50349578343339,0.471117322242868,-2.22299368325281,-0.0345597241252161,0.0312881311460115,0.0171254857336846,9.45517302753086,-0.0558347405336322,-2.34933337562266,-0.0462163873796483,0.0503927659917018,0.0161067854811552,9.67555012932771,0.793790130488333,-1.53533752480951,STAND
0.77,-0.0329305215904375,-0.0156584288367884,0.0050231881538474,9.54756863544782,0.535120611022918,-2.09535752452298,-0.0325576223640672,0.0267259109609378,0.0154925830234184,9.50477070168518,-0.118157550686138,-2.39308766668478,-0.0482598353913942,0.0473913448749603,0.0187467424556817,9.66486096107676,0.730167556598936,-1.49412004401926,STAND
0.78,-0.0277260860798594,-0.012717356743297,0.0042829014361815,9.57971504597323,0.584874572466571,-2.14607791355136,-0.0207259013212539,0.017526889544836,0.0126643134271811,9.45832879100042,-0.141145713437643,-2.30834025181158,-0.0557126131987948,0.0454094121394217,0.0136509737533069,9.70102931073147,0.692614184531627,-1.50871146910107,STAND
0.79,-0.0206579074567221,-0.0069317839479185,0.0024590634828207,9.55851075703468,0.599755484636633,-2.17000558327881,-0.0208039701792193,0.0087296038721992,0.0067875271196343,9.46210069607001,-0.152601115598986,-2.3658035001118,-0.0533104854438433,0.0451616235339484,0.0086248690772344,9.68063003684503,0.625057697777819,-1.445905617266,STAND
0.8,-0.0184479070369892,0.0035399117654153,-0.000380955427436,9.55133582441906,0.602341824237825,-2.13634672437787,-0.0122479134525667,-0.0013419505858928,-0.0017659553557551,9.52975260032198,-0.168121054731771,-2.38900118031238,-0.0488908976247099,0.0489199918897624,0.0047504048158715,9.67376741463919,0.53423804940914,-1.43628525314799,STAND
0.81,-0.0235504798026851,0.0074611662126353,0.0006109025943929,9.56433809389467,0.547801175872536,-2.18234042556555,-0.0049258800176749,-0.0088268742796019,-0.0055554822991206,9.52539497799332,-0.193000825721661,-2.28340557197729,-0.0400150120007524,0.0447269238566418,0.0016481567957696,9.66898172668769,0.50176157258265,-1.44079148807556,STAND
0.82,-0.0145190034296552,0.012028283177292,-0.0038007642630561,9.52685227406692,0.474570402942855,-2.21974751598073,-0.0138146237470965,-0.0100882910280011,-0.0080249605929666,9.53284540629969,-0.115408584507048,-2.28808961410508,-0.0291073214854984,0.0386836271673207,0.0020250844201578,9.65046720238035,0.492823324919198,-1.39262223435494,STAND
0.83,-0.023102896596264,0.0055623765915847,-0.0035320656142976,9.5337334530452,0.465117573407185,-2.12829248672563,-0.0107212404287681,-0.0006154798719747,-0.0076295049243429,9.53062049528058,-0.127110358722378,-2.23556905386397,-0.0158268535599672,0.0392422449099934,-0.0011900495421578,9.59177317098091,0.484911111606139,-1.38915226234375,STAND
0.84,-0.0168254271381063,0.0001572395832146,-0.0003372698712514,9.54809247882472,0.46125835568906,-2.19533394909878,-0.0024868366522114,0.012199651081616,-0.0086562107616275,9.5590170040202,-0.0874552421081755,-2.17965524966321,-0.0049167034922011,0.0331969449473925,-0.0008170046407244,9.56098579786251,0.49371814549348,-1.39745785533694,STAND
0.85,-0.0133883893951667,-0.0092730937895646,-0.0023832139022615,9.56754988908731,0.481410320325428,-2.17516557765773,0.0055614116749461,0.0043022572955246,-0.0091339207677438,9.58944155482642,-0.131779862047564,-2.08736187358186,0.0042740821071493,0.036022683846893,-0.0041689492303105,9.54774455871759,0.517486129655618,-1.34090404393277,STAND
0.86,0.0000529356633134,-0.0129558892261434,-0.0025177669308333,9.53913552202194,0.498726719029843,-2.16560408604053,0.0103205428785655,0.0074636308059411,-0.0090900945893201,9.5778360066513,-0.136660756489999,-2.06612391609169,0.0168913465408267,0.0269610761232529,-0.0023926526097292,9.5223273751001,0.559020844965737,-1.34050136593292,STAND
0.87,0.0172736104327948,-0.012978926836536,-0.0055708813624111,9.5741386146048,0.479758871483017,-2.21118506022846,0.0084497295210859,0.0073325087699337,-0.008005136593637,9.58074703139664,-0.183467064503501,-2.07666892781225,0.0312014223436756,0.0207392166779121,-0.001535657719324,9.52725702813213,0.594549329015595,-1.27455886601491,STAND
0.88,0.0210054401197381,-0.0127497672437787,-0.0086163302655367,9.530387089361,0.458936871987678,-2.23799456531667,0.0103347670797076,-0.0044633273776873,-0.0153349788747824,9.52920019237201,-0.135892623417147,-2.17975431674892,0.0451376735366969,0.0177753947809165,0.0017474671359641,9.57467081425629,0.620040851032265,-1.32827092823154,STAND
0.89,0.0314571939121122,-0.0088990178990143,-0.0108494964810095,9.56639724355957,0.48260928410582,-2.17996425218658,0.0132673320885533,-0.0029976940210351,-0.0143895247907115,9.53327728296726,-0.205882790910159,-2.19697844124017,0.0608086084709045,0.0108002213057123,0.0026645205588639,9.60199021511524,0.638776916310227,-1.28411722820651,STAND
0.9,0.0312610467662111,-0.006233578559282,-0.0087151681805396,9.61391489142742,0.48563707731492,-2.17092268651801,0.0273781737663263,0.0008244177707514,-0.0197710733309487,9.54917696931777,-0.270268308219114,-2.23457625743811,0.0693510298021797,0.0005837404969325,0.0035961517899649,9.66462302663842,0.620553758604928,-1.26021244177567,STAND
0.91,0.0509383004903472,0.0104466384774114,-0.0157405070869151,9.5384744910199,0.423089586057131,-2.27108288425639,0.0387043730966083,-0.006196256722859,-0.0145205366042211,9.5602357870556,-0.203667138261347,-2.29723578128733,0.0769007398540862,-0.0121348816479965,0.0020693246774937,9.68162980474384,0.570434921092643,-1.29108491750688,STAND
0.92,0.0574225103844389,0.0078443859705915,-0.0137992580054783,9.53529739942278,0.484250542585804,-2.15147975516227,0.0477841855981308,0.0038585041243614,-0.0188509745926184,9.52229575777785,-0.0758541052896303,-2.31334327189997,0.0732110799478404,-0.0224032068023575,0.0011311172766638,9.71268803418227,0.560783015691237,-1.28129229416331,STAND
0.93,0.0560632688508135,0.0010672093655989,-0.0176068959795565,9.51564854279393,0.549605164844061,-2.19531276506767,0.0604552540195556,0.0038317611026706,-0.0187340400749799,9.5360708528674,0.0054391370965496,-2.22577706753194,0.0722746318486441,-0.0269106268319998,-0.0088670343563828,9.71317693666696,0.557158257100941,-1.33859370130524,STAND
0.94,0.072610573698905,0.0021910840518792,-0.0145122085328604,9.54512236433686,0.583202089529519,-2.22693492627592,0.0490417902581878,0.0116438083973914,-0.0175618048499204,9.54586859156931,-0.0010991675395878,-2.19264300403101,0.0760459135451392,-0.0279188583543906,-0.013834565032985,9.74070295710027,0.573966943482868,-1.3531425710477,STAND
0.95,0.0690891101111623,-0.0006998201274683,-0.0135965100317322,9.51296124416961,0.625847298257712,-2.32550114216183,0.0456355998019004,0.0131293479992771,-0.0166768704820571,9.55858606937257,0.0413535203946989,-2.25964871065866,0.0773882000368364,-0.0228193525297133,-0.0161046748865135,9.70565656218866,0.608063692647442,-1.39132102224007,STAND
0.96,0.0659060021351896,0.0040331783032869,-0.0144479164425075,9.49619237182116,0.621818653342466,-2.36441980214671,0.0451607635544238,0.0160836123518649,-0.0148487634775646,9.50374990936889,0.0992706406096549,-2.30302837612144,0.0776803559309269,-0.0182144968348838,-0.0132925461317768,9.68980886528537,0.651055321006519,-1.47307243140674,STAND
0.97,0.0658649455511081,0.0060690648009506,-0.0136981077924387,9.44567360024896,0.602733313580848,-2.35604251334697,0.0411747599163881,0.0109453017346586,-0.0117544594231693,9.46486995029196,0.0912813670358195,-2.38389367779357,0.0735339660522706,-0.0115092553225288,-0.0089430568356365,9.68204186609968,0.704550640654331,-1.46734909481147,STAND
0.98,0.055459739997388,0.0056479755774335,-0.0113379040389817,9.50060693212423,0.602956851834879,-2.37962987053217,0.0264275344585586,0.0067268784089058,-0.0161115466370268,9.47964587077615,0.0498505157515729,-2.4148437969783,0.0730781600722038,-0.0027917714654408,0.0017363638413333,9.70105690311144,0.712759946512827,-1.51257792443546,STAND
0.99,0.0636677243686882,0.0065358400312518,-0.0091009215797139,9.48489138508943,0.641744446117909,-2.31482260097559,0.0279686596372941,0.0027830142952634,-0.0098426913302549,9.47085314561824,-0.0025716400631058,-2.40479074180354,0.0635257716848424,0.0000752159823811,0.0044430469054342,9.70985507513644,0.719189663998746,-1.48072380448302,STAND
1,0.0615641085186826,0.0029336574482708,-0.0059995616931898,9.47347448272874,0.661871418103661,-2.26564942010552,0.0497074814749991,-0.0022152515367203,-0.0079705362579856,9.44131136388869,-0.0179837917777826,-2.45444577128391,0.0594113226542076,0.0057698143337405,0.0050056591177916,9.75079640482514,0.713817516978571,-1.49099302956404,STAND
1.01,0.0529667358477556,0.0073900562870067,-0.0039848781127354,9.53648331367473,0.702249618848395,-2.21980741023516,0.0490349245495169,-0.0057020207253321,-0.0053964535091668,9.50386440996894,0.000846190038293,-2.41408229849464,0.0545987228242556,0.0111406159989644,0.0089543522839349,9.78147973068054,0.707223971044559,-1.42418174088822,STAND
1.02,0.0410770033042167,0.0097109338486368,-0.003061481684903,9.5561780404212,0.721426956348158,-2.19894386324462,0.0545154999839735,0.012101007305994,-0.0081482322596075,9.52244660919123,0.0462918947575126,-2.39104068992547,0.0484596749484955,0.0186660032632044,0.0060129322296958,9.82261066737389,0.701738282180295,-1.43318542208439,STAND
1.03,0.0239824364757367,0.0036206065760071,-0.002249323292959,9.54782654496744,0.673142070814916,-2.14371950162271,0.0650702127736408,0.0070822518935372,-0.0060113675993415,9.57357046263654,0.0595170659995674,-2.32875063298821,0.0528578867458086,0.0258391022219676,0.0028426110623434,9.83920940509552,0.654848402363178,-1.40635413539888,STAND
1.04,0.0140113031622778,0.001283189607486,-0.0040255298456599,9.53699735214357,0.616264850866158,-2.19479654155239,0.0641571721125007,0.0137543323974878,-0.0086140819865822,9.56349447653169,0.0294900222473602,-2.31256825160485,0.0552225992381474,0.0324286052217118,-0.000761801468604,9.80834547069184,0.662409611155361,-1.41578690131462,STAND
1.05,0.0151348138318998,0.001851710859212,0.0009133130978966,9.52552879777942,0.637035495264384,-2.14564955288193,0.0398310867150793,0.016691355430155,-0.0066558034774822,9.54319881910015,0.0665169451613474,-2.37055842354277,0.0453089518326684,0.0409806226993866,0.0012635623560095,9.73043369428726,0.644708753084769,-1.3688712652851,STAND
1.06,0.0170476274138127,0.0081266345204702,-0.0000676037755733,9.56400751013318,0.548415405362142,-2.18363456166749,0.0340799464600837,0.0209968685224754,-0.0028706648146543,9.52901960703024,0.108151195568424,-2.33719735692303,0.0375036517856708,0.0422374064260695,-0.0014626911733551,9.62214038977392,0.632107476535098,-1.38791636130872,STAND
1.07,0.0202798756782008,0.017763755249039,0.0026242026319072,9.53893227830616,0.580795782371992,-2.19035300320881,0.0307676836379647,0.0193465600564211,-0.0023456235944085,9.48390361631184,0.0620903048208842,-2.25798050288381,0.0259590026827435,0.0352509060715477,0.0024287607965722,9.59685239245427,0.672943384338383,-1.38748209409241,STAND
1.08,0.0251386159443921,0.0240208765923897,0.0053753085106698,9.53091003574719,0.532143618108702,-2.13363002374953,0.0205443817059305,0.0110811463073617,0.0003424240346626,9.50920184572914,0.048734877789544,-2.30337000924701,0.01683098796454,0.0279871072686661,0.0012881250318443,9.60488507109404,0.763318859100282,-1.39036855324744,STAND
1.09,0.03020124294896,0.0276049846824985,0.006003654535062,9.52698634507372,0.6341256557135,-2.14003307782122,0.0007699293313611,-0.0019655266590041,0.0031390854814862,9.53065456672923,0.0469272274697321,-2.29117719528279,0.0103495428382764,0.0270964242971011,0.0054402894336581,9.63418264604877,0.775871061466406,-1.45385074162681,STAND
1.1,0.0283939388723095,0.0172609698277325,0.0054979363874334,9.50933700670488,0.663315612871798,-2.17965354690372,-0.008063800756558,-0.0048255153652184,0.000490945454681,9.52603514071693,0.0184401649115818,-2.3879653114981,0.0092473032739806,0.0334824724593971,0.0119383850534968,9.68410644084201,0.858132604934849,-1.52125135632025,STAND
1.11,0.0163079883484034,0.0058554179384644,0.0059692321357547,9.51546789371335,0.609452559789973,-2.1911534157064,-0.0147195354014312,0.0038239648977236,0.0077361294430072,9.49365186377182,0.0503215936750751,-2.42679555063792,0.0139446330830996,0.0370114246195912,0.0169731175724021,9.73856612565266,0.831829840709805,-1.5263290130688,STAND
1.12,0.0060835198036199,0.0027594991702577,0.0062008121252269,9.50613197494135,0.602055660789765,-2.26314144834062,-0.0229706337146585,0.0052646158057721,0.0089335073171771,9.43931256798093,0.0473485623459909,-2.42919321891484,0.0139076438215899,0.0380341648826486,0.0207490366897106,9.76729000767585,0.846374973022038,-1.53432275063409,STAND
1.13,0.0074589731459209,-0.0013781342971438,0.0082743866692221,9.46282407082728,0.579829586875045,-2.28845855513024,-0.0188897238736773,0.004951065060747,0.0115476039343235,9.4667601404779,0.0500728258065251,-2.32589825684844,0.0159496446999734,0.0410296718387,0.0181307584698773,9.72594000112261,0.786830715497633,-1.56041517001843,STAND
1.14,-0.0016400394031307,-0.0093677619951059,0.012591054892485,9.42588601795113,0.632712389121693,-2.24785597480649,-0.0093473874429606,-0.0029777770339703,0.0114911531414978,9.49099447146552,0.000386662490313,-2.32492593604535,0.0104756600260864,0.047481591344052,0.0186113339279897,9.73845277446256,0.702664488920229,-1.59436921704171,STAND
1.15,-0.0054841314361057,-0.0055149800455181,0.0171225678887272,9.49874966755193,0.686030532085296,-2.25481816240124,-0.011264375193073,-0.0015424483691902,0.0127522455597257,9.51732219461759,-0.0371312153980233,-2.37741260113696,0.0040160947647222,0.0514156440362117,0.0166321407274202,9.68228605352722,0.671268993338685,-1.51213878166738,STAND
1.16,-0.0088259533277942,-0.0056153236116111,0.0167776110991162,9.51688808653688,0.654219729776888,-2.2137161052327,-0.0125553761551346,0.004946366750845,0.0116121354657978,9.53727918993712,-0.0156728647302218,-2.36003862311053,-0.0109456812278339,0.0562899410591785,0.0152867507761269,9.71760545199345,0.636339017174724,-1.47119497804384,STAND
1.17,-0.0273652707437573,0.0054066033979017,0.0179672375861552,9.54601169768449,0.679426925711905,-2.12092044404163,-0.005838796618576,0.0051163491085956,0.0102094228350114,9.52552218091541,-0.117875015645252,-2.24896568665058,-0.025254828635663,0.0600952019156996,0.0173881178337783,9.65387417735735,0.593975342756258,-1.47497979348138,STAND
1.18,-0.0380365460496269,0.0042331226186164,0.0223323362770422,9.57666033637141,0.75490752322632,-2.04874252766954,0.0005877172697859,0.0019759529429909,0.0099186053078727,9.52262955476648,-0.167192949673304,-2.14781494170118,-0.0347226174357713,0.0550889529792501,0.0148593411616895,9.62992055108364,0.551276906778954,-1.43420957751522,STAND
1.19,-0.04825378761286,-0.0043225417724227,0.0217073819488996,9.60359704881179,0.686365076838517,-2.03764819076422,0.0037018060709241,-0.0028155483990683,0.0101517352505134,9.52479481045989,-0.155864100859026,-2.20098689469605,-0.0407788698885704,0.0523222063146666,0.0097673446921316,9.6350450422986,0.587075372339512,-1.36544289475923,STAND
1.2,-0.0534546911965854,-0.018194292860613,0.0207406719194616,9.61590710847403,0.623065787319806,-1.96028951207754,0.0105106030490881,-0.0057792944337764,0.0083945038651592,9.54758021626483,-0.0861691887521479,-2.28498794929413,-0.0393544867522673,0.0471171180107093,0.005352882574881,9.58196553117118,0.611689789258423,-1.35224423576108,STAND
1.21,-0.0383598826098269,-0.0252511384641656,0.0206874487445115,9.55840307310142,0.52802887330525,-2.02039208044633,0.0208336078025829,-0.0029715784977238,0.0114268191926138,9.58592417740357,-0.0190634887555895,-2.24551643759134,-0.0359166087549159,0.0400823851059017,0.0044405312283129,9.57826673452666,0.640268107322097,-1.31693311511049,STAND
1.22,-0.0347159772026401,-0.020962301316761,0.0191353615493759,9.55568953172716,0.433280194042492,-2.10446704545028,0.0077367762740209,-0.0015637166256508,0.0129431846796652,9.55056995761608,-0.0368719785233555,-2.18366703722756,-0.0270775742585628,0.0368879217115863,0.0051869797650543,9.54219197693331,0.615801711276341,-1.33419841730334,STAND
1.23,-0.0159899305137593,-0.0182706061752808,0.0183848857891733,9.51717790235822,0.520292711295835,-2.06777012004855,-0.0023383205018951,-0.0018146633917823,0.0150476050557437,9.5269930669476,-0.0491429187058546,-2.14245069866178,-0.0216269290825117,0.0280204200908606,0.0077725680761909,9.54266432536621,0.615507872436553,-1.33095155917708,STAND
1.24,0.0044537957184774,-0.023032574784657,0.0161966013503501,9.56214881874972,0.428007769700168,-2.14186668931998,-0.0187932644040023,-0.0004883976681682,0.017265657025049,9.55867109337094,-0.0226982789044156,-2.14604258372414,-0.0171314711347231,0.0132029620883782,0.0071720224013319,9.55386310067961,0.680834526498332,-1.31090016763364,STAND
1.25,-0.0009018334877258,-0.0198671860553668,0.0191854003754772,9.54749658669953,0.515956709475547,-2.10048615750707,-0.0324520137207742,-0.0153279396696323,0.0087357720103365,9.53575451996813,0.0018085267939785,-2.15311258571683,-0.0134243390736381,0.0083614025550826,0.0121026763673028,9.58215433147374,0.696689543120218,-1.32110675206885,STAND
1.26,0.0009192197168913,-0.0149910017867435,0.0188396925334901,9.58216281384148,0.65693255772648,-2.06990106433723,-0.0364694148569374,-0.0038672783177326,0.0058978266231555,9.56787147619381,-0.0302475309700551,-2.11528413520081,-0.0154287092856406,-0.0014983951004675,0.0132852771401636,9.63175198530664,0.699362578412024,-1.29787689625146,STAND
1.27,-0.0035951353295123,-0.0026867219878304,0.0160272457678777,9.58777490851382,0.602474611081306,-2.08332972752396,-0.0451683095021312,-0.0137351188634897,0.0087856027859047,9.56010076108419,-0.106798450861447,-2.11186795412119,-0.0164535655248957,-0.0088422621079105,0.0169362665305971,9.64157372663996,0.702494390226903,-1.32019855622606,STAND
1.28,-0.0118968421540606,0.0005048750562829,0.0152853778335244,9.57930917671769,0.638001887821719,-2.05253116952839,-0.0432538813320093,-0.0151682719241466,0.0075232824559275,9.56552618633763,-0.105613906109955,-2.22502394483453,-0.0211858292306889,-0.011342280817456,0.0156592365570077,9.64462451365393,0.676092296816899,-1.29750870124631,STAND
1.29,-0.0118497140780485,-0.0069945902666715,0.0136769589009945,9.54693697376631,0.672344496030472,-2.02685601482758,-0.023374519871052,-0.0052751531945534,0.0043804242550673,9.56668163309464,-0.129189864798212,-2.23152723949697,-0.0245343352215994,-0.0121834105101623,0.0113820042749038,9.61772001285021,0.655109574190364,-1.34162411890639,STAND
1.3,-0.0234960526348917,-0.0148271877421786,0.0108692159657182,9.55384954698478,0.584335414444013,-2.03756670336018,-0.016814273230067,-0.0131179400646005,0.0035491027936506,9.45428615379439,-0.18606316275212,-2.34009075164724,-0.0237284148076443,-0.0197421387771812,0.0027862163540384,9.60777555730846,0.650360969166019,-1.32106547998065,STAND
1.31,-0.031163510182866,-0.0235177839073329,0.0173634545670657,9.56527866286248,0.569828104180493,-2.21265296502756,0.002415589136858,-0.0209877770828765,0.0028394224460717,9.48976092837626,-0.22968764749174,-2.36165236840811,-0.0355847916591554,-0.0196337804911604,-0.00085824329861,9.58804067067773,0.577135748216361,-1.37335335630428,STAND
1.32,-0.0452109989840303,-0.0282067467169996,0.0212793647792248,9.52099415055738,0.540449869112113,-2.1159576012841,0.0132146847322517,-0.0211442241230528,0.0040455187857182,9.4582949154184,-0.2217818780476,-2.40780176404545,-0.031858372419458,-0.016216269819762,-0.0013287441787985,9.63419235393766,0.606449961769889,-1.37561236748983,STAND
1.33,-0.0619575337391055,-0.0375698923812118,0.0185910268752808,9.47690044303658,0.518560435796964,-2.14412217461761,0.0032513766515144,-0.011816647918853,0.0057605983404778,9.43162821420235,-0.185889449421038,-2.3569722255932,-0.0196230822041179,-0.0195946625993489,-0.0000946656765124,9.66202576645847,0.6234514405476,-1.38851791227067,STAND
1.34,-0.0592385415714638,-0.0328928421986565,0.0251978858650558,9.59153388692157,0.465538434684082,-2.20757200899658,0.0059750326016089,-0.0144625771588414,0.00138521558082,9.43678433872091,-0.122032774570345,-2.30929725625497,-0.0087732251752354,-0.012938022409897,-0.0005425253229864,9.71058585303728,0.710409095947493,-1.40518281202888,STAND
1.35,-0.0577504014056595,-0.0301737398775427,0.0274971233107465,9.53476649517634,0.498421353111732,-2.18919026687914,0.0132078244767334,-0.0188178765326654,-0.0020245092466421,9.49836058713342,-0.139043626253697,-2.22254407673975,-0.0016285094729607,-0.0131290435219357,-0.001234865447395,9.75132634072251,0.706448462763061,-1.41620421611658,STAND
1.36,-0.0621510097164904,-0.0164623971534479,0.0240778741437765,9.52735463159234,0.422388789192446,-2.25801290661594,0.0107471230650698,-0.0232414077222142,-0.0047892108525693,9.55585090597493,-0.147809447252881,-2.28038264036609,0.0014312834557995,-0.0168976115812275,0.000242627033855,9.8060829911462,0.742996529412739,-1.38588267880593,STAND
1.37,-0.0599257077383531,-0.0059968357247519,0.0212213996994643,9.52854485733983,0.387214742244709,-2.25612792524459,0.0166779737779765,-0.0091614546283986,-0.0031257584284836,9.58720636610717,-0.119998315387017,-2.2854035242485,0.003797130071741,-0.0127245602709739,-0.000289546344325,9.75210037025023,0.767783764865424,-1.37909528748309,STAND
1.38,-0.0378761406364634,-0.0032433861140371,0.020789786916555,9.52011871685401,0.423064861797397,-2.22534455255008,0.0348435524852665,-0.0183690356304103,-0.0058704322472343,9.55104068047825,-0.0766487717378494,-2.26674935534715,-0.0043741268818725,-0.0140317904081872,0.0017127397418742,9.73359388592088,0.755552140885463,-1.390987206204,STAND
1.39,-0.039500959123495,-0.010782974435201,0.0189949999893511,9.56074693810857,0.426986533926927,-2.18231460698113,0.0409750647768734,-0.0248196336283598,-0.0050586206961046,9.52710430744209,-0.0878878793531499,-2.22736525531845,-0.0114561310014935,-0.0124381331209708,-0.0044262462656936,9.68820757021594,0.788363615724488,-1.35140743273742,STAND
1.4,-0.0292855759882248,-0.0077162050969584,0.0187556854080892,9.56216093794653,0.476365847481696,-2.20389366668504,0.0314162283528405,-0.0295847926408077,-0.0049425574983565,9.52994821106404,-0.0996338599378087,-2.28852595555469,-0.0127561215549111,-0.0102785135114047,-0.0113160505384298,9.6599204711289,0.772704101797124,-1.34105457317316,STAND
1.41,-0.0167328330177746,-0.0112089227022219,0.0116599626811121,9.55210830034539,0.461704037519848,-2.15278715028959,0.0292322693790947,-0.0187521703785524,-0.0026140311150739,9.55834337395899,-0.184119082950381,-2.35405827807599,-0.0229621676728227,-0.0063188165412418,-0.0120941700567461,9.67378010767517,0.814680552982488,-1.30012852216483,STAND
1.42,-0.0163891382120183,-0.0090473950244327,0.0090229954382324,9.51408712800514,0.4722095121803,-2.2153848277364,0.0273743320513962,-0.003858506354153,-0.0076480192817537,9.50771342053234,-0.162225006894626,-2.46406656625985,-0.0276554227219098,-0.0098294869571934,-0.017140574528357,9.60686412185848,0.797321126745557,-1.3884771876069,STAND
1.43,-0.021401935370768,-0.0146432106631703,0.0076382374653158,9.48293738349458,0.47285843157892,-2.18760179208321,0.0386772922381603,-0.0062103096173219,-0.0145219354148168,9.49589728422463,-0.167412041240215,-2.44376806612211,-0.0330871872955701,-0.0043847108360875,-0.0204168775176812,9.66040076997422,0.774762376176006,-1.39723297442102,STAND
1.44,-0.0250339902398153,-0.0189255077500048,0.009183835504221,9.47148824496783,0.50107272614978,-2.26405267546338,0.0311238777392845,-0.0155462821133967,-0.0160169182872063,9.50117415519908,-0.102381727475542,-2.39601474721427,-0.0412829996747435,-0.0022633301793834,-0.0176872706168257,9.66647068033503,0.726833896421266,-1.35035930852539,STAND
1.45,-0.0168408667636153,-0.0235309116906458,0.0105322535183805,9.48380658289829,0.530417247176414,-2.33602712902475,0.0213220836393203,-0.0251893819509882,-0.0149558004791855,9.54898276279671,-0.0399380328111797,-2.32581791174984,-0.0389386977440021,-0.0005071039804415,-0.0151580546742588,9.67723768666248,0.794676683529567,-1.33200347406056,STAND
1.46,-0.0148821441528115,-0.0247539453873104,0.0079396436808941,9.48305404269562,0.445052359331085,-2.31483642688803,0.0038988225929959,-0.0283396910147989,-0.0150876103498952,9.50543779971851,0.0598347771185928,-2.44180069803707,-0.0410095826352762,-0.0059256238162633,-0.0094841009684405,9.66108442629184,0.842254864673319,-1.35692254062108,STAND
1.47,-0.0157509454932587,-0.0264121461670054,0.0153461917237783,9.50378794083692,0.514386519340249,-2.31752875349415,-0.0007978427089009,-0.0353890273346597,-0.0092160370132338,9.49574542882643,0.0080074729805398,-2.43494153657881,-0.0403890251840803,0.0022724365195574,-0.0076497159263512,9.68903825419262,0.86027527684471,-1.36808456557736,STAND
1.48,-0.0104105500222811,-0.0295786116183428,0.0123365022214065,9.51724381764205,0.500875353610674,-2.26334970683622,-0.0143610933476945,-0.0310272445895796,-0.0058546010545788,9.48603643493232,-0.0440382042465375,-2.42820634414174,-0.0489424990763155,0.0042267594525948,-0.0032199715826333,9.75686783402211,0.877190359686246,-1.33406305941921,STAND
1.49,-0.0189835901193608,-0.0251004464081907,0.01438339202609,9.51824119820021,0.550402037721523,-2.28664067408354,-0.0275738470773915,-0.0272405502533645,0.0022908235322674,9.48254993368358,0.0041631213064762,-2.42011435465003,-0.0510196306103423,0.0046563307419114,0.0001214943651537,9.75262451671824,0.906348366973106,-1.30210129488269,STAND
1.5,-0.0225589338446762,-0.0259517339895211,0.01605593360717,9.49384925596378,0.548164259759547,-2.29381777797084,-0.0325103032282583,-0.0241457264407504,0.0029740311565179,9.51583272841013,-0.0511519411434896,-2.38935239416873,-0.0567651001011318,0.0030829491157895,-0.0028901397107037,9.76553769132442,0.886492974980535,-1.29978011373837,STAND
1.51,-0.0374633213099601,-0.0194838190731755,0.0147990931267527,9.54544796107081,0.523562821699715,-2.17744634946139,-0.0439611655789474,-0.0147805855219019,0.0043174559548902,9.52787311124332,-0.104965396543215,-2.36971582831503,-0.0574621560626795,0.0051783666989297,-0.0025454187581164,9.75698400154264,0.879887276250274,-1.33143483235789,STAND
1.52,-0.0388770145614285,-0.0133002206091136,0.0135049008283622,9.4969672399546,0.443699735107295,-2.28946021493497,-0.0403166992574251,-0.0113866172629684,0.0024947923113146,9.53976179881897,-0.0627623970046095,-2.43943881814323,-0.064282613133277,0.0089638236201762,-0.002797994911872,9.73329903687336,0.8359971073956,-1.35006888318784,STAND
1.53,-0.0370084954136248,-0.0104594575158381,0.0124191288628226,9.51496050468258,0.412422114619226,-2.249274815187,-0.0248058745354059,-0.0068012185528613,0.0038802604213501,9.56930183509543,-0.0468444133478537,-2.39080519225828,-0.0769086346104523,0.0097566225190465,0.0007651251188621,9.71080326183915,0.8531863776456,-1.32806622943149,STAND
1.54,-0.0351504131358612,-0.0130792619521996,0.0104501256492517,9.50065369170971,0.424757302516415,-2.30697971237856,-0.0200055507930403,-0.0051982153840735,0.0037267250878438,9.57560299179274,-0.0421725946943088,-2.30037966117979,-0.0867983753419839,0.0173183574287206,-0.0009330713235676,9.66888553253262,0.861253944688468,-1.26171224871082,STAND
1.55,-0.0298052646967829,-0.0107853594619927,0.0083181154163796,9.47240576247354,0.441690688483005,-2.2972133060039,-0.0416803569768826,-0.004087148058839,0.0077864479569876,9.5863077956358,0.0233226030306235,-2.36375624603746,-0.0878512159961215,0.0133933479688715,0.0034409357576107,9.6862731024686,0.813325375636937,-1.2892912984915,STAND
1.56,-0.0084704501475769,-0.0178537977131564,0.0122411100021159,9.49886054347504,0.458491385314123,-2.31177645053592,-0.0543575386343334,0.0078782225757019,0.0138988981447182,9.54546199658895,0.0387200862951144,-2.43999763687487,-0.0848430265624695,0.0164807228714173,0.0063792792033675,9.6467563004577,0.815075022946735,-1.33180774181751,STAND
1.57,0.0033808449662722,-0.0256778258897956,0.0103877295342152,9.52387909139982,0.509218737170097,-2.32964961889139,-0.0660539661424076,0.0123762493267313,0.0161861692335019,9.39396589473525,0.0365639802457481,-2.46745602926394,-0.0798006154444842,0.0201444254866072,0.0097585811179313,9.66968980817101,0.799320397706525,-1.34991133755705,STAND
1.58,0.0000134616578926,-0.0182719000880616,0.011695276994836,9.53036159952564,0.505909980190114,-2.36550060542519,-0.0740373515006582,0.0044394492832346,0.0163310423166465,9.41326126142678,-0.0402418247555681,-2.56257329928524,-0.0770553452865109,0.0152073940004684,0.0091407129329726,9.66224093481219,0.708556005992621,-1.34309629903683,STAND
1.59,-0.0115082533955114,-0.0137413311575773,0.010031743333788,9.48376365908538,0.459921789279188,-2.24991972718875,-0.0872482932146173,-0.0037072752690807,0.0182708490049061,9.41269801020338,-0.0760493537190765,-2.51500820010194,-0.0770865218898093,0.0186396273318381,0.0098940886818387,9.71090002866864,0.651217138588253,-1.35881523308361,STAND
1.6,-0.0284782850798396,-0.018360144570366,0.0102434644019643,9.57496090368207,0.482624637345966,-2.21642925533337,-0.0869426666825153,-0.0146517336816432,0.0170078202445494,9.47473208595266,-0.092577000686318,-2.42789644037302,-0.0699636629880243,0.0218810111193983,0.0099333190505572,9.76504371129415,0.626572646814571,-1.36487183085021,STAND
1.61,-0.0252813156523537,-0.0176430110705705,0.0119585378895556,9.58971150454231,0.443340436806031,-2.28302925078444,-0.0795876184574805,-0.023687692096996,0.0130343457776506,9.4937355640616,-0.106089904596959,-2.3650621203151,-0.0614543687973687,0.0267982789274289,0.0069760150798315,9.78682773151946,0.613294073721968,-1.32814186475979,STAND
1.62,-0.0212276109898224,-0.015257951585828,0.0062681271220075,9.56639908318182,0.415671591858028,-2.4110370893372,-0.0683638971465408,-0.0252295635421169,0.0125672988811015,9.51534709958277,-0.167166221542222,-2.31395000413895,-0.0539744094268459,0.0360719288138378,0.0030171310017859,9.79271609066753,0.64632354030126,-1.31523800993135,STAND
1.63,-0.0286658473315758,-0.021155346988835,0.0114952290151648,9.52827524910859,0.418582641654234,-2.349973288582,-0.0541061078908482,-0.013403993504442,0.0065998284497771,9.53193979971531,-0.255978522562352,-2.35906631333876,-0.0438320383537171,0.0423827334186143,0.005979137416193,9.76209995270117,0.655200566147319,-1.32315779542988,STAND
1.64,-0.0314347827579624,-0.023764266179545,0.0056342342768883,9.48562715625827,0.448287507656946,-2.39783891563405,-0.044853682126904,-0.0096158683873413,0.0015207435372253,9.56417465818792,-0.287576328594638,-2.32194183807323,-0.0387643222330583,0.0484711715103815,0.0063179796583276,9.79933076620822,0.679207368163787,-1.29685699151673,STAND
1.65,-0.0229541245889995,-0.0241859872392269,0.0050811755416047,9.44822522119365,0.425552372231153,-2.45900782727323,-0.0277737808786271,-0.0058983358973012,-0.0031350179761524,9.57564857643837,-0.281071356357926,-2.34350267373045,-0.0302271292603856,0.0558272060568111,0.0003270359950701,9.75602281819635,0.708729484220068,-1.30490339914306,STAND
1.66,-0.0073303260740962,-0.0229060897948592,0.0011746416987157,9.468746859423,0.410710616014436,-2.43825863988047,-0.0106493494736707,-0.0037462444977163,-0.0079740722142392,9.52026568750381,-0.222429674147612,-2.38833030160249,-0.0254679992637158,0.0548891465734115,0.0008753917618138,9.74389102034911,0.729747694138516,-1.30059624782132,STAND
1.67,-0.0034224376915549,-0.0198880954083578,-0.0031342276248309,9.48649758362288,0.37988745780074,-2.39924699442347,0.0125653745466387,-0.0064882149911795,-0.0118518787597167,9.5090497574759,-0.190659196597315,-2.41551519181766,-0.0237474649290096,0.0543069066913378,-0.0007611247771567,9.71106754094025,0.680566743958037,-1.29364059011175,STAND
1.68,0.0057777654762848,-0.0125485073732373,-0.0088223678620213,9.51155872361115,0.432179143256683,-2.41657104640534,0.0232810890628348,-0.0154482100108706,-0.0165522512936603,9.44238229823404,-0.101260646465006,-2.48754213704563,-0.023029096119899,0.0487900531688388,-0.0018488054750915,9.65789673649116,0.705662329038726,-1.28008297089883,STAND
1.69,0.006349494681459,-0.0096139836108302,-0.013462281875123,9.48752448024422,0.338496606910352,-2.27520332859068,0.0225235284623196,-0.0158100933908909,-0.0136182317109589,9.41465490012702,-0.0404245972403715,-2.43066303545581,-0.0202741474850285,0.0379808910480848,-0.0002058973591649,9.63332592707379,0.663809200314479,-1.24165062473445,STAND
1.7,0.0176450217544152,-0.0094572455541669,-0.00891654942817,9.53567338116795,0.511628075290267,-2.3126670623558,0.0162065085344367,-0.018131648612261,-0.007598760529765,9.48964278269295,-0.0753123105596183,-2.37069021874131,-0.0203033660504599,0.0414092608263603,0.0005478924735615,9.66194402790856,0.68081158939978,-1.24864363445864,STAND
1.71,0.0368835856293131,-0.0093532307139659,-0.0152638466449467,9.5196073094043,0.474340960671553,-2.34977938909422,0.0066037220704102,-0.0062886031839371,-0.013362943669268,9.47821496993655,-0.0437632904609659,-2.39855602320817,-0.0176318647872373,0.0526155894660356,-0.0001384484808575,9.70351563480354,0.677082191458634,-1.25360837028637,STAND
1.72,0.0248893113780109,-0.0063548715453908,-0.012896644614579,9.50690063324656,0.444910090721813,-2.28065500937683,-0.0064711277801514,-0.0072115239922523,-0.0057352617430756,9.50926741578855,-0.0514883506317881,-2.35524463931487,-0.0218124596813618,0.0534382989826531,0.0065476343829116,9.72990640005965,0.635585760431401,-1.24572565173773,STAND
1.73,0.0215118466207512,-0.0044089733827516,-0.0124696505613349,9.50138642035954,0.498302201635452,-2.26812306010211,-0.0151869017544293,-0.0028150574350859,-0.0026724503073393,9.50072344552363,-0.0674428810726137,-2.39369051683205,-0.0177500416129052,0.066329718277915,0.0028849967986444,9.7292730929097,0.658379677009486,-1.31739530364967,STAND
1.74,0.0249539136921298,0.002533811478985,-0.0118784390240085,9.52114819952465,0.518469792856839,-2.24791747827708,-0.0225237060166649,0.0070008459903186,-0.0049288946993319,9.50173078996903,0.0062097163043316,-2.48836482507736,-0.0035218805507207,0.07035983004451,0.0060321730363164,9.71196056705535,0.646081602928297,-1.32159575853664,STAND
1.75,0.0330586192395021,0.0019807699318105,-0.0090460088181881,9.51707566146618,0.537123425325369,-2.23222450021006,-0.0210342799735392,0.0069519594007861,-0.0045514710858432,9.49958090746848,-0.0419434695894808,-2.38722011993658,0.0063920271955463,0.0652251582255576,0.0046896750019051,9.70542751342201,0.698982005680689,-1.30673017768766,STAND
1.76,0.0316300798829407,0.0027049765522075,-0.0112189196374426,9.5424917652216,0.589113357120177,-2.24806164366109,-0.0178329982160477,-0.0009684577568225,-0.0047128388564813,9.50896339146466,-0.0846057971130934,-2.30719454055562,0.0060824425453999,0.0581986646003819,0.0048871693234098,9.67396690877265,0.625936899975597,-1.22193191218453,STAND
1.77,0.0215716393478543,-0.0009806736762945,-0.012337417217859,9.56077559057253,0.558699586286823,-2.20706501242129,-0.015209088550303,-0.000471560353643,-0.0087365039639743,9.53358551613312,-0.0960922736240271,-2.35436210883182,0.0047433903864558,0.0555327225815696,0.0040939419026894,9.61625051356339,0.678068703141703,-1.17692357327264,STAND
1.78,0.0162280450527603,-0.0087329451481798,-0.0110813395913104,9.50612880408095,0.644044567240987,-2.20664350945947,-0.0182334453449435,0.0011925496964961,-0.0093078728914175,9.51402451690868,-0.0805668974100369,-2.41900738973958,0.0133278655990374,0.0535970913961986,-0.0003273899472833,9.63146150687377,0.65458007711104,-1.22489815997201,STAND
1.79,0.0257584819205155,-0.0154645466722496,-0.0069592705445243,9.57141157079612,0.624142312858818,-2.2815253958947,-0.008071231636198,-0.0016866167107815,-0.0118115201632588,9.51738829830896,-0.0644616047091504,-2.26930850215657,0.0031317304251538,0.0541513476110622,-0.00182186328157,9.61927085408498,0.67530217786967,-1.22111906785919,STAND
1.8,0.0209025426199933,-0.0107669548540325,-0.0079519665976931,9.51509588326952,0.658468235948417,-2.26124954655981,-0.0002871740841697,-0.0121047640218895,-0.0174558681351869,9.43201200241169,-0.0204109025291198,-2.3638065343166,0.0059878534416652,0.0506636996110213,-0.009287429752263,9.65269058713463,0.664579808090191,-1.25827131199956,STAND
1.81,0.0124658117149879,-0.012381450981682,-0.008147916932037,9.49571182474319,0.716093648897519,-2.18188094023269,0.0072296550235993,-0.0162597429108001,-0.0096911497044008,9.49960539124183,0.0017255522562679,-2.43642064252127,0.0042534551519198,0.0512506571860329,-0.0076381611361321,9.65042931279603,0.690808090582191,-1.27651629800762,STAND
1.82,0.0020845319080726,-0.0073146546438886,-0.0048624484472497,9.5275086884852,0.681151944422493,-2.20931221063209,0.0148539012977919,-0.0077232875330703,-0.0145991807703637,9.53010370256912,-0.0424962395777639,-2.34622425031114,0.0059501979966527,0.0540966825795169,-0.0085165418715581,9.64103477444299,0.686764541340665,-1.24971474113015,STAND
1.83,-0.0081116342565215,-0.0049118438227656,-0.0037128370150374,9.52864758113176,0.6472198836283,-2.20731633277929,0.02052531997194,-0.0112303512476892,-0.0119905220195306,9.50569371795893,0.007292591441891,-2.34743276768307,0.0083432612546562,0.0489776802889611,-0.0074714678551479,9.66796826491523,0.706713823428267,-1.20103545180641,STAND
1.84,-0.0118755781255401,-0.008559965599796,-0.0007788759397603,9.52848434066023,0.647654497941413,-2.20789346114118,0.0320419928427555,-0.0094614342690123,-0.0135688530668104,9.52687827853051,0.0063832976640147,-2.33681660877645,0.0066408456039355,0.0461355193682854,-0.0065803200290298,9.7101734809568,0.764061161072886,-1.16484587128341,STAND
1.85,-0.0062012654776304,0.0013567533532948,-0.004674534648575,9.48040534754685,0.560697142116436,-2.1944358782711,0.0292385721967468,-0.0037009169521016,-0.0088117208188841,9.54218963459448,0.0636703481998416,-2.25588728152661,0.0090351490327961,0.0410157727279228,-0.0055371199176346,9.68713777303018,0.71981205429799,-1.18131260161949,STAND
1.86,-0.0031907295474522,0.0047397827118189,-0.0008276458109865,9.4783730744415,0.518665608905667,-2.29763510780146,0.0209885687889693,-0.002256330967959,-0.0075794190020285,9.49966541155474,0.103288410240389,-2.32682695509971,0.0072292591551603,0.0425886195069724,-0.0001058638466682,9.64036127724551,0.714155877115841,-1.25528401911868,STAND
1.87,-0.0014718006644943,0.00821207662418,-0.0005353084697295,9.499818035235,0.588859629614999,-2.29734467991331,0.0048216664332845,0.0023766068078113,-0.0063994129295904,9.54251947634939,0.100665448888157,-2.30363339372031,0.007487439172521,0.0413085105436484,0.0050244120683773,9.66912479842064,0.730596884086968,-1.26199142943004,STAND
1.88,0.0068140999244195,-0.0004585403104398,-0.0007239721786314,9.47045351820876,0.555432203575403,-2.26543823183925,-0.012296550381994,0.0002062126703605,-0.0015489091998908,9.46902226040315,0.0161724588551785,-2.28138216214909,0.0074854517319429,0.0413099559768174,0.0050293056509558,9.67165814405255,0.727497915708161,-1.31254930656821,STAND
1.89,0.0061399349449043,-0.015704324663103,0.0027817372914432,9.51679431169397,0.592117076319951,-2.25926944858251,-0.0239444646287074,-0.0087901868704229,-0.0056619681903187,9.47251186534175,0.0423246708039191,-2.38791299026775,0.0064456427684601,0.0339299606607718,0.0085921751147009,9.66212504804621,0.722000243747341,-1.28723613101829,STAND
1.9,0.0078993472221315,-0.0197220428447813,0.0014366219276151,9.49525835179906,0.606577131080522,-2.2839146972368,-0.016872460651844,-0.0092146036902561,-0.0023100221024476,9.5014841134368,-0.0040300095354409,-2.50018192760068,0.0037482135632107,0.03201965451674,0.0077330302910998,9.6759890719116,0.761149233828421,-1.24169614410705,STAND
1.91,0.0044782003161401,-0.010288019130088,0.0034999346512846,9.5508937557176,0.572065300340205,-2.3070844268703,-0.0121612716525074,-0.0044854842163127,-0.0020971902927771,9.47909770944504,-0.0748224140046259,-2.41758352393894,-0.0006840465630219,0.030694636603829,0.0085112041420298,9.68396594659739,0.706896302655434,-1.24685281235766,STAND
1.92,0.0062475118200836,-0.0033870718330911,0.0039190627663561,9.51188274102161,0.609237826624288,-2.24753755257346,-0.0111994859256814,-0.0127191464992337,0.0002978778525627,9.47788424310478,-0.014305454204606,-2.46018649311435,-0.001940718870434,0.0270373496018525,0.0039156359352291,9.71208862157039,0.662350999120603,-1.29565803714099,STAND
1.93,0.0011971001733501,-0.0014867241031867,0.0041815440930265,9.51737687621508,0.640922876881233,-2.28412093754154,0.0007392276993031,-0.0123300429726067,-0.0029338798314447,9.51023454144579,-0.0463752283810902,-2.42310011292304,0.0014544063180633,0.0268544338754725,0.0044291220740553,9.72581665450899,0.701949662057156,-1.25063708713098,STAND
1.94,-0.0073810153175723,-0.0024690076456458,0.0053702791663858,9.46400837066267,0.605868916921589,-2.25746181051297,0.0099659637043203,-0.0093113860018931,-0.0017745997995039,9.50922414709678,-0.119153808044418,-2.32928937287137,0.0052250753704695,0.0327180071453179,0.0009822776450235,9.69042998654605,0.738337690511349,-1.22895352793007,STAND
1.95,-0.0241604516089875,-0.0043006436447907,0.0043575074958082,9.47208624958758,0.56910956488678,-2.2889048654717,0.0219946281743458,-0.0120498210706861,-0.0053741724588809,9.54062332019705,-0.091357042412191,-2.33380009530276,0.0075483852082091,0.0344563500193379,0.0035414728416103,9.69406860843787,0.773303083047412,-1.16163159753755,STAND
1.96,-0.0193896210577232,-0.0049357862545166,0.0068580766970067,9.4985232107127,0.501513529891049,-2.27937977391818,0.0177199016208191,-0.0054652339173985,-0.0072386490287506,9.5488720679406,-0.0746020951182445,-2.29666141589409,0.0149258135418476,0.0364135455165104,0.0087654648317678,9.68321928526249,0.813676863012013,-1.29189617101598,STAND
1.97,-0.0161083415887046,-0.0137369213988534,0.0061743607077156,9.53512552791727,0.439453077586517,-2.19806160228363,0.0159887159824485,-0.010290572018395,-0.0066965909243107,9.50442207402369,-0.0476331623986354,-2.31494047364844,0.008348453520204,0.0389323002857825,0.0136269622812971,9.67896661065572,0.840441038985419,-1.25702349031661,STAND
1.98,-0.0090589680867005,-0.0134308705491975,0.0034391663407295,9.52050766045199,0.451880444410343,-2.2559729282601,0.0167703706663779,-0.0122664733238026,-0.0035682555048389,9.51575584853533,-0.0419232758234649,-2.33674796241182,0.0017699532550931,0.0414519763309514,0.0184879733489642,9.69243041100367,0.818101319390116,-1.25169944822059,STAND
1.99,0.0046570557510092,-0.0184115205628387,0.0004742634530089,9.52274585588158,0.382925190973517,-2.2524123269515,0.0000480273442157,-0.0134818412199966,-0.0064228142760958,9.49227795911802,-0.0528448132554376,-2.29647890557047,-0.0033289403807776,0.0387933910025157,0.0188547181731128,9.6652932007774,0.776656666002217,-1.15955023607981,STAND
2,0.0085091617274568,-0.0188241384078502,-0.003971032296855,9.51827006554121,0.401264116287504,-2.2385900379362,-0.0073119243330472,-0.0163686402581362,-0.0086691990657902,9.44938098137066,-0.0126809191342152,-2.36849442248861,-0.0049967120706559,0.0325196132838914,0.0189753039824942,9.70164539548159,0.738151971682803,-1.17479105141292,STAND
2.01,0.0198039782011025,-0.0295727574249978,-0.0012040057952143,9.48311243979214,0.505405933797382,-2.2195215053791,-0.0078247876682648,-0.0118584863248878,-0.0066534527680194,9.43211711034716,-0.0450398682211859,-2.44572062641808,-0.004598671572896,0.0233897869956255,0.018795146549433,9.6967987400696,0.703647301628678,-1.18167086626958,STAND
2.02,0.0339530374211476,-0.0255321666578726,-0.0065519382953255,9.46953573680994,0.568248127264063,-2.29964707928164,-0.0136039707841596,-0.017921157665493,-0.0088886737400124,9.46587137008977,-0.100042994201967,-2.41449880305613,0.0094346255087518,0.0218345261113261,0.0153854483496762,9.64017842955079,0.691429200589194,-1.23602602053749,STAND
2.03,0.0300661689259478,-0.0176278852305723,-0.0004684618262832,9.49698038529652,0.550767404227513,-2.31276544517251,-0.0049026949112761,-0.0230827573591597,-0.0057148708860469,9.46648441302674,-0.159257558456678,-2.37464335614465,0.0175422481258342,0.0182618365673196,0.0195057102880517,9.6586710704639,0.701575719634777,-1.22306579455647,STAND
2.04,0.01797353289692,-0.0105729723243194,0.0034185801318824,9.52332105503129,0.567398494209714,-2.32769712808463,-0.000373073087076,-0.0240126118807509,-0.0110166862322807,9.45745458444147,-0.175027483444593,-2.41482121938104,0.0265711265268045,0.0189298232192527,0.0104002469807643,9.67451134430627,0.737306517782424,-1.23348784602163,STAND
2.05,0.0021317745952894,-0.0038866067353497,-0.0047363452391923,9.50860074397744,0.494890096819386,-2.36179234303803,0.0185348881911657,-0.0336047926934054,-0.010543821406449,9.54233723008251,-0.216538282219041,-2.32387788853626,0.0305818964951989,0.017639081967482,0.0143590138390583,9.68501648796133,0.740464017711375,-1.25361069389421,STAND
2.06,-0.0081595518652047,-0.0028808278861382,-0.0029489472869899,9.48041331644595,0.427523449551253,-2.32788992272347,0.0274537021904772,-0.0188576908035469,-0.0143603209057083,9.53210067545128,-0.17240692064593,-2.40608786160459,0.0292750886809929,0.0267148015674001,0.0090096094990391,9.72162607951387,0.762951029011909,-1.22944079999231,STAND
2.07,-0.0020012276351737,-0.0076648535761012,0.0015929925589544,9.48575409538382,0.459847450504728,-2.36471681713596,0.0374645035947011,-0.017807610498015,-0.0100841377006729,9.525824765416,-0.113538594167012,-2.33785154133231,0.0285731460676435,0.0288124102891066,0.0093662663829304,9.68320395865468,0.763136414434258,-1.27241773170981,STAND
2.08,-0.0020095597665083,-0.0185828926730964,-0.000168981461628,9.47998506442746,0.427685198305333,-2.32960366602001,0.0363482032921342,-0.0175759935934656,-0.0119269247586613,9.52261084729609,-0.0659145598286126,-2.3282773271057,0.0234383590854673,0.0295881952024565,0.0104844829493016,9.70968089718469,0.781157712586757,-1.22586037366698,STAND
2.09,-0.0025285299837781,-0.0289992983218743,0.0028414711375575,9.50205759695351,0.463274545803203,-2.32971465361065,0.0377917786797138,-0.0160572581237551,-0.0113699844299879,9.48499240238253,0.0013553109116446,-2.30381808174023,0.0165645620378788,0.0309531481306696,0.0132351945564829,9.69202743402424,0.767761674213078,-1.23420573862323,STAND
2.1,0.0200475330819327,-0.034263289320489,-0.0040948721201593,9.50914309284018,0.53773276199935,-2.26563435980395,0.024048138793589,-0.0173776954907407,-0.0134566572428589,9.48903719452453,-0.0330128732075649,-2.36968053926383,0.0150078824007843,0.0354305769646541,0.0050236415686022,9.69783639386103,0.799422882793468,-1.22153191005253,STAND
2.11,0.0367442684535261,-0.0283690289680123,-0.0015954636178759,9.50570294876573,0.521294657901036,-2.25058243225511,0.0127277083575232,-0.0127209610285141,-0.0125983632281531,9.45709111589441,-0.0600800387498695,-2.36744349864843,0.0139882457585591,0.0246197538543483,0.0078192961481525,9.69292503025387,0.765881545616014,-1.2283106348993,STAND
2.12,0.036839702632267,-0.0324293190656721,-0.0031026417969583,9.48613773161016,0.493149538100312,-2.14970947672579,0.009884249444462,-0.017317766863017,-0.0138919298881476,9.4567433358802,-0.0590951851907445,-2.36885712597207,0.017466975315463,0.0234413050506375,0.004555381722965,9.69600174072005,0.716932514232257,-1.125153855032,STAND
2.13,0.0364719414269926,-0.0380171369486304,-0.0005898110928088,9.55585252446882,0.530730449395109,-2.14182825358941,0.0044269912293404,-0.0224119676758167,-0.0111552547175863,9.48232852879343,-0.0580481397649493,-2.47098266697152,0.0199780311434569,0.0138898442081266,0.0010541129636905,9.64723602429604,0.713187755761829,-1.14733221370787,STAND
2.14,0.0467269369511922,-0.036990067079028,-0.0016331011815591,9.54990264268102,0.556138055510994,-2.25428089369402,-0.0024154058651434,-0.0171259197735764,-0.0154185520198811,9.49464025322078,-0.111272331042845,-2.45171851092695,0.0213568655717143,0.0190012722166553,-0.001156760265512,9.63718228271026,0.708296369766497,-1.12422647330338,STAND
2.15,0.0416804255193708,-0.0350884760523912,-0.0013625109247381,9.57307973183386,0.641390638674124,-2.27679186339518,0.0004731605438835,-0.0140910160950832,-0.0143074797821385,9.47693603756064,-0.0568442988581325,-2.36255927686767,0.0227565276927739,0.0148080390675376,-0.001855798556103,9.63736153035012,0.708193746399221,-1.12275353826925,STAND
2.16,0.0318094317460872,-0.0250661033653164,-0.0019559747379889,9.48731815600518,0.614918349771743,-2.34784398046786,0.0060621195747421,-0.0263735356399346,-0.0175730590563644,9.53106305835539,-0.0163505134804102,-2.40975223819215,0.0236564649633531,0.0148719488783925,0.0036844712953227,9.67360396180959,0.754544883984588,-1.17693718207963,STAND
2.17,0.0162754776198009,-0.0304128293960733,0.0005005274014427,9.45873415372278,0.631525709258289,-2.33968669592246,0.0129520659950658,-0.0332187602194925,-0.0134929952094842,9.52882138895722,-0.0276872618060366,-2.35949206478261,0.0236038822188854,0.0124346156301098,0.0067172259458524,9.67632985409565,0.728378456455007,-1.15252885010523,STAND
2.18,0.0165550903441281,-0.0262222963381055,-0.0013877371856255,9.48203436612987,0.605740443532065,-2.4594279070135,0.0005564242752038,-0.0425918073616113,-0.014632702820977,9.52507584857134,0.0209421205931662,-2.35193755181184,0.0253797826534319,0.008411230619247,0.0043292726126684,9.70523964114822,0.805084771545319,-1.12149482015413,STAND
2.19,0.0211526509580473,-0.0351039408273099,0.0014881225369083,9.45463934081869,0.503163779861997,-2.4252847601231,-0.0022848134889539,-0.0345003264832118,-0.0159411799018482,9.52569937046134,0.0713131258511472,-2.45622649575682,0.0246106865927683,0.0022010172665197,0.0099849839512999,9.67448028134495,0.81283745687904,-1.13393118596913,STAND
2.2,0.0026474914560555,-0.0294929599264084,0.0019878756047086,9.46452825378099,0.508715661186852,-2.35618573741438,0.0043280797887347,-0.0446500989680208,-0.0107587195119347,9.46161873784834,0.016746625325068,-2.45250829676624,0.0228532485979022,-0.0030777345288126,0.0138918525541426,9.70775178291492,0.82252602111609,-1.25363532088162,STAND
2.21,0.0011161432402694,-0.0356305054542336,-0.0004247259638996,9.43982251971524,0.507323954679745,-2.3638819242639,-0.0033613172151908,-0.0492896692855126,-0.0116974143622205,9.48626058891023,-0.0184700942564909,-2.50974986115399,0.0194243372556344,0.0005420884656538,0.0141237440645302,9.69477240907411,0.75815746494863,-1.21848352278755,STAND
2.22,0.0125362204875547,-0.0449700876076762,0.0017047017948858,9.45618969729028,0.425933160730287,-2.30574837618782,0.0035322770843334,-0.0426724918933021,-0.0138887434831731,9.47507949281291,-0.0465742334198319,-2.4988757083315,0.0159958858120042,0.0041620217713017,0.0143547702847733,9.71552377044258,0.743214959925705,-1.18396514670436,STAND
2.23,0.007712594431479,-0.0423082753972599,-0.0000305649785075,9.50440308538754,0.563387575659538,-2.34523999005419,0.0091699839282218,-0.0445960343144642,-0.0111134177559072,9.50557683428631,-0.0539365408170776,-2.45927594898135,0.0132144677899446,0.0032487968484557,0.0172692196061197,9.70542549557693,0.736896369745246,-1.16204467110843,STAND
2.24,0.0281719326288994,-0.0436841239536252,-0.002275181119251,9.46338818235868,0.608554960503005,-2.41330480625831,0.0030646878443141,-0.0397238533897247,-0.012056305739446,9.44999131031083,-0.0194855245646249,-2.5128591290087,0.0091224106971128,0.0055328186458609,0.0170909209729367,9.71586422383908,0.739704463025714,-1.18336969489833,STAND
2.25,0.0362592877561536,-0.0476506459011204,0.0004047995440077,9.52990512771355,0.518454259412818,-2.48650828268678,0.0067885307538201,-0.0394489962877657,-0.0142513134678036,9.45746778658415,0.0709746042907653,-2.57379441123278,0.0146656644760201,0.0014893089441937,0.0135421005341745,9.72877555371113,0.717323702715504,-1.18148112705692,STAND
2.26,0.0291327621022396,-0.054805314146849,0.0029280386777115,9.49287571441325,0.571398002885762,-2.44943440750164,0.0081393516075245,-0.0348041469653672,-0.0133366892946128,9.46672938189681,0.0288100440930026,-2.497516301235,0.0207148721967602,0.0066486938834706,0.0157048881914195,9.70839983061366,0.706500426108505,-1.13787290583255,STAND
2.27,0.0337505456932361,-0.0636814678128605,0.0058029548687182,9.51019386987204,0.539506871888433,-2.4141767323819,-0.0002457571458801,-0.0286905247268145,-0.0115281860952328,9.48760518553117,-0.007791049125348,-2.44157387065401,0.0131212721687385,0.0059535849013923,0.0053181449043518,9.69585969525993,0.70352340143118,-1.06124635226019,STAND
2.28,0.0381005614217504,-0.0658257571796927,0.0123077524720681,9.51726555232121,0.524380286618808,-2.59415151924654,-0.0086286192601912,-0.0352592388908236,-0.0096985296529912,9.51107419709267,-0.0192094320794452,-2.49188460818614,0.0075580069402919,0.0041304620116621,0.0111449164667745,9.75233221350998,0.652358099730469,-1.04476556089768,STAND
2.29,0.0501731478181201,-0.0653902065792774,0.010006735089821,9.47033551313654,0.450832292145614,-2.60416530076711,-0.0140194917382633,-0.0300081571778021,-0.0008995894135139,9.54159272442243,0.0458178858759242,-2.54637188200981,0.0058315609810649,-0.0045791830074978,0.0142981353072561,9.75489143941539,0.625705386195943,-1.02151314625819,STAND
2.3,0.0381698259270711,-0.056932345089081,0.0132957095684299,9.50253185281785,0.405679579288649,-2.51249059012889,-0.0097778947415997,-0.0223300589649307,0.0011173828908684,9.48500990935787,0.0670011353131228,-2.54522339249867,0.0057972059366093,-0.0011446397618837,0.0150546410023191,9.72409365876207,0.632967823914863,-1.03460023345891,STAND
2.31,0.036109120406051,-0.060522615527622,0.0164177094929885,9.45649794131227,0.443857092427791,-2.42396512310518,-0.0115932071853743,-0.0240283848447759,0.0020352303330444,9.44152543899907,0.0335821606874228,-2.52269154632076,0.0068046716414865,0.0037943402491803,0.0145281928996854,9.70366256117933,0.62230518801835,-0.991169869952447,STAND
2.32,0.031150904717969,-0.0626838214709693,0.0152071367751666,9.48160016062174,0.458772230581185,-2.44378262709943,-0.0098699535182369,-0.0318834429279039,0.0014974275497774,9.39486164557655,0.0839039951673767,-2.53691775764724,0.0024936664217854,-0.001957100002104,0.0107364560137709,9.69101211906692,0.641795314364116,-0.992760995771854,STAND
2.33,0.034813546979935,-0.0549820732841091,0.0137326597457567,9.49132818812651,0.547577322745386,-2.40126715905529,-0.0163911954838583,-0.0383139804418847,0.0022315553573725,9.39659900615776,0.0729450477402586,-2.5989048934414,0.0050208325502749,-0.0056495225812104,0.0049683683433005,9.68367257315428,0.694523343252851,-0.985336263562776,STAND
2.34,0.0371503433404522,-0.0362877853076776,0.0104330679373475,9.49668566319991,0.543059412448906,-2.43963277782671,-0.0266511915684578,-0.0315655982082489,-0.0010954217786275,9.467488990869,-0.0493221026775056,-2.59606752246157,0.0251919363254425,-0.0030752995391085,-0.0000238829372809,9.68606237294269,0.691277583548168,-1.04032670361376,STAND
2.35,0.0400144128567137,-0.0201457772865367,0.0016090401205563,9.44039663304485,0.575915571136754,-2.4203389011389,-0.017486727039286,-0.0261929571667225,-0.0060515291440235,9.49115007837034,-0.0972407647433839,-2.5986630812625,0.031995878478784,0.0024185430641275,-0.0012427673636287,9.72718092996812,0.686849861096319,-1.04945522024017,STAND
2.36,0.0578026066250507,-0.0138907798532622,-0.0061824890416721,9.44511268220766,0.522099461494982,-2.43491230549347,-0.0018761391202063,-0.0247176534208469,-0.0051204196861483,9.48198380475736,-0.149513576465821,-2.59144372962884,0.0428330306316172,0.0031943838883821,0.0007585177523122,9.7320927914938,0.658267697782902,-1.08055680374319,STAND
2.37,0.0595261780673303,-0.0104181373006088,-0.0059172586336849,9.39805649440424,0.568990154101924,-2.46638248079444,0.0140849502233015,-0.0222851533487734,-0.0119070641764777,9.50152961809263,-0.126537678863932,-2.57669581571633,0.040935729085922,0.0116626513656033,0.0076907711578762,9.74740030997774,0.611332348777884,-1.05507721949283,STAND
2.38,0.0702797566971988,-0.0099175448930032,-0.0117880127262205,9.41816159652563,0.526107448908656,-2.56635272299804,0.0129127652559847,-0.0078181420792845,-0.0135764484122651,9.49545031648749,-0.0308010960290221,-2.55567875085181,0.0451324541407696,0.0125554678296446,0.0175600707724385,9.65015920309276,0.664129129289686,-1.0614440310394,STAND
2.39,0.0547448054314561,-0.0097911619104093,-0.0083876894405107,9.36353696180499,0.525478808541791,-2.54259420707533,0.0107303814874763,-0.0096991055462921,-0.0111876795388635,9.44780203645146,0.0439946609567132,-2.56239592335639,0.0494396597994797,0.0183132231896021,0.0213580853188493,9.64800224343938,0.687039291088424,-1.08364590734241,STAND
2.4,0.0371813799669928,-0.0152849861810755,-0.0025989255559332,9.39711396821435,0.567007045564097,-2.47042715809713,0.008455476513512,-0.0084565995246887,-0.0084350522047364,9.44438760294646,0.128444595996585,-2.59955294687313,0.0526140593331056,0.0235750899652445,0.0302321945686919,9.63864539130065,0.762827822134671,-1.09769437370848,STAND
2.41,0.0282482683473461,-0.0218351687317194,0.0011954802433119,9.40409184242986,0.591303546427594,-2.38482184552869,0.0126529261777727,0.0007803197857921,-0.0062397376858606,9.40738590039918,0.159460002691139,-2.52609554022201,0.0454193662176862,0.0272235167062406,0.0316188846702698,9.68323860195364,0.790865608302429,-1.04064939931285,STAND
2.42,0.0142934329219996,-0.0285189344055972,0.0045353304455321,9.57380588331567,0.592873726010875,-2.2322626748342,0.0006470531453939,-0.009188667174006,-0.0025595658526086,9.37833610357492,0.120628933369409,-2.58127466399491,0.0354167866396575,0.024103730638424,0.0382021290999463,9.69655036432553,0.788505489844644,-1.11461026723808,STAND
2.43,0.0134147941301758,-0.0260715033249365,0.0134451853838956,9.68933430836014,0.616657455967341,-2.19755704858808,-0.0100728296231392,-0.0121819436844762,-0.0040305986211134,9.39082874568328,0.102954544135542,-2.60875052248839,0.0208712591404653,0.0257848935699484,0.0343133213358658,9.75637099440522,0.792400016048963,-1.11014382782936,STAND
2.44,0.0012400222280903,-0.0069217993130258,0.0033306541363065,9.7016596992891,0.587872456928382,-2.12421144521135,-0.0107622073611481,-0.0141077750036037,-0.0012731007591816,9.42912824259968,0.0128403383067605,-2.64192205007103,0.0159221331615559,0.0245562560856119,0.027829004632055,9.7616577484734,0.738664951096148,-1.0609774166131,STAND
2.45,-0.0002679717685737,0.0067404082383488,0.0036085423136262,9.55778258490386,0.579804215958784,-2.15053119898566,-0.0194661865119435,-0.0097457962161128,0.0018413541106306,9.49893147543842,-0.0494558315597185,-2.67894489649792,0.0147424156703539,0.0233021654106527,0.0201867641024325,9.77170522540935,0.65733762741285,-1.04290380256741,STAND
2.46,-0.0101789807691428,0.0058333362649142,0.0013194779794337,9.49747417766704,0.542838549737564,-2.35209561558516,-0.0213478712950258,-0.0091084411353057,-0.0033033781435585,9.44058941566548,-0.0532458589727581,-2.56983511396833,0.0200564820252942,0.0111949862847705,0.0130570416027907,9.68428205639601,0.631386820680264,-1.03307046144529,STAND
2.47,-0.0017190854163816,0.0019889261983033,0.0005915586979226,9.46588136000393,0.685790608811225,-2.49205464498848,-0.0152861511475811,-0.0124102730707856,-0.0021963307218342,9.44913160084074,-0.0358089564560533,-2.53302816785082,0.0276224356579072,-0.0015931976081476,0.0115407566140325,9.67172807285068,0.650736456253917,-1.03452797853458,STAND
2.48,-0.0035630198800493,-0.0063022103316875,0.0008603431158095,9.36491398425783,0.671455484888777,-2.61569115004807,-0.0294988313371135,-0.0108097738087217,-0.0023844534711834,9.46648084593989,-0.0016287134164631,-2.45846297846047,0.0290131142206534,-0.0150927887149773,0.0124005650184809,9.63310196022766,0.650503345081631,-1.08116409961456,STAND
2.49,-0.0237350239924471,-0.0082287013881987,-0.0003242782337626,9.35099578121078,0.564737067132009,-2.64575326304727,-0.0500493300618561,-0.0092107760140039,-0.0025725609386034,9.49807315010018,-0.0088320622014766,-2.41587116749184,0.0320820685370142,-0.0223178378748372,0.0131358883942813,9.62105022494266,0.752977818823014,-1.12255123551187,STAND
2.5,-0.031386026595074,-0.0182730928273767,0.0069117757320483,9.37344600218456,0.516182953633249,-2.62117231621916,-0.0506463694104498,-0.0142584205325721,-0.0001820547113093,9.54058388468305,0.0261388713826788,-2.4417767992558,0.0259368954521339,-0.0264634350518624,0.0147656061729718,9.61616278229131,0.801745767957369,-1.17204478903098,STAND
2.51,-0.0031467482481041,-0.023732957305932,0.0106490526110956,9.45384268073578,0.425640966466626,-2.4953085703997,-0.0332677005268852,-0.0095188006807513,0.0000011129824664,9.55236660082134,-0.0400217903476757,-2.36892691854711,0.0186911867799504,-0.0159346167470937,0.0176291352285319,9.67295214117278,0.832785357252235,-1.19547758215229,STAND
2.52,-0.006755767113925,-0.022541680194632,0.0131050575646325,9.53924343241895,0.366218968489463,-2.40649864376145,-0.0386622237360897,-0.0161777767955535,0.0025734488131324,9.54179282987665,-0.0322221046947885,-2.40236555825193,-0.0030312212324481,-0.0105962913199222,0.0150867409724199,9.72907970972502,0.780734002134521,-1.18039606708173,STAND
2.53,-0.00327895251272,-0.0176332422235863,0.0128807377362356,9.55769675610183,0.419251610137011,-2.39145208299059,-0.0202773605697584,0.0049082155873715,-0.0012835126363779,9.49628513185324,0.0678556720252537,-2.51468344950203,-0.0275333045582225,0.0031446974960597,0.013909230074181,9.76714351896723,0.717116138913611,-1.17529302818887,STAND
2.54,0.0019991643371466,-0.0078613265140868,0.0122806194365068,9.53605300669938,0.410026800201851,-2.27275542274615,-0.0108844268096884,0.002475302301996,0.0055120537063306,9.40157952767514,0.0205908259881693,-2.55007001485618,-0.0446418895146497,0.00777249364832,0.0030413144483068,9.75147202761119,0.679491810946043,-1.16212202847219,STAND
2.55,-0.0043491027467147,-0.0024631203137448,0.0091359668750005,9.52073201569924,0.56766889765273,-2.23550622815375,-0.0098982518762364,0.0069294794449007,0.0079011999031083,9.40560791492018,-0.0144104604867899,-2.61404254863069,-0.0584256534966841,0.0097885793703211,-0.0042408058807292,9.7349893848677,0.559659937450348,-1.11098710179858,STAND
2.56,-0.0124993980761325,-0.0019282268203312,0.0063670941117297,9.47647004672965,0.630737627123934,-2.28402738538128,-0.0010092046234165,-0.003675564683065,0.0040401416648816,9.37492296085382,-0.115747974690678,-2.51523454790603,-0.0565362100512049,0.010607490406835,-0.0126927976081,9.6986319501214,0.514984411939823,-1.05398436223948,STAND
2.57,-0.025494182534638,-0.0041964259572897,0.0010222565903351,9.45984074096954,0.699911144546084,-2.48630468570982,-0.0070465706749666,-0.0138225339600571,-0.0034943287935983,9.4217744452355,-0.153126219633984,-2.55784284472008,-0.04787166873882,0.0017462540812367,-0.0185340889931086,9.6779872942557,0.508120218397624,-1.00976960397844,STAND
2.58,-0.0391812919345539,-0.0121521786718518,0.0016113902449311,9.49121088969639,0.664874112147777,-2.5134647386551,-0.0115950027972337,-0.0113401191832102,-0.0106570482030334,9.4122296539925,-0.132346901589262,-2.644297116593,-0.0336241228770122,-0.0104162526744909,-0.0151929542281523,9.72222137059115,0.58611073335713,-1.11070554414422,STAND
2.59,-0.0487793163938047,-0.01636270204753,-0.0041763487138352,9.44537894933357,0.532943283648511,-2.63606756371317,0.0013583316459235,-0.0207042882302198,-0.0117651665809268,9.50662906731185,-0.0837077073716702,-2.61007726625588,-0.0266152676543145,0.0065485695409764,-0.0120511290362348,9.7585218090668,0.633993004343197,-1.16634787915925,STAND
2.6,-0.0427710497564652,-0.0273373890660184,0.0015013819339726,9.40824577898499,0.391652918044865,-2.66906963579042,0.0119208964202653,-0.0249230197246398,-0.0159946499195238,9.48901636303314,0.0065561336635559,-2.56864183223444,-0.0224853285429912,0.0143161817588089,-0.0006690277076395,9.78171985290231,0.640875742437523,-1.26296305384481,STAND
2.61,-0.0325076675133903,-0.0317785703749376,-0.0004678010484547,9.41879294502591,0.337200992714923,-2.7182416298956,0.0023232730031491,-0.0281397488787002,-0.0156246252615113,9.52335709595766,0.110800751243343,-2.46709715504381,-0.016966157670874,0.0085810767619546,0.0115567536446718,9.79518458600637,0.680846589439169,-1.21953422110399,STAND
2.62,-0.0033870057509334,-0.0333808927734923,0.0116697862469647,9.441827325079,0.423110108792487,-2.74090166430179,0.0157114209559506,-0.0269861057522149,-0.0121411639256368,9.52024253277677,0.122831562517713,-2.41098738725898,-0.0203886905999526,0.0029067965829681,0.0133088800906484,9.78502083863698,0.675361297094168,-1.19717953376335,STAND
2.63,0.0200754949426166,-0.0238894474519425,0.0147379454272318,9.376851856433,0.442700257147562,-2.66906512649282,0.0165176956954548,-0.0289598789211671,-0.0090194039216327,9.49508083086299,0.172248205185904,-2.41361329235773,-0.0160788624060999,-0.0006431777754209,0.0186392891284829,9.77482284514631,0.669519017835187,-1.17528169827443,STAND
2.64,0.0263396108604475,-0.0252267997460672,0.0193646515400582,9.3485178741195,0.457705675367626,-2.66028237543411,0.0053171394078351,-0.0282328786498625,-0.0022135072508601,9.49074813114227,0.0975362339872503,-2.52428201518734,-0.010220045134666,0.002332957781684,0.0149156673240508,9.75680248389965,0.656071650454614,-1.18623810938078,STAND
2.65,0.0198272369497521,-0.0335275682427831,0.0157844099560472,9.406369650661,0.560522324307661,-2.46671837284693,0.0099285448183417,-0.0203783306368128,-0.0016656732382235,9.49730635966718,-0.0209881393650706,-2.55494526974179,-0.001258028367566,0.0039456961857984,0.0096247930543922,9.72845504221089,0.638484916529438,-1.17535959769711,STAND
2.66,0.0152438150195202,-0.0376041735117661,0.0104519752536636,9.49160181892037,0.584884519742877,-2.40354979337192,0.013279771922275,-0.02028351157715,-0.0024039762029641,9.45786897915458,-0.0894265551756302,-2.59642488162721,-0.0011612280306824,0.0122425855321588,0.004302085731423,9.73157427043088,0.673545339931588,-1.11069456710378,STAND
2.67,0.011986222572381,-0.0362956639364952,0.0095199632803628,9.51110496406482,0.518660478738799,-2.36326476813025,0.0272365270393454,-0.025964894492452,-0.0075637206965655,9.42583015026542,-0.117476601228669,-2.5946226895171,-0.0042249004028203,0.0287748551273347,0.0020564834126167,9.74448254647155,0.652460866457001,-1.10696502094179,STAND
2.68,0.0039187153652134,-0.0289030969913112,0.0069842387712541,9.59027367889913,0.546298753009827,-2.26599110866131,0.0349728506844682,-0.022881367382098,-0.0068392221647311,9.43646282160759,-0.111935832370226,-2.61779645684898,-0.0084709798274587,0.034758830810553,-0.0063081043802855,9.74228782102464,0.655694758382095,-1.04937548671162,STAND
2.69,0.000172507037663,-0.0026712987043066,-0.002125060197351,9.55302960098404,0.572756921483188,-2.34668814577357,0.0414155565594901,-0.0267762165714534,-0.0136438508154493,9.43240410944963,-0.028145599582687,-2.65624172928401,-0.0094886892548959,0.0298224661583838,-0.0057775870571661,9.71411132013794,0.639918479369653,-1.03566563586421,STAND
2.7,-0.0115880486722112,0.0045193853795843,-0.0015617994905718,9.45956336848044,0.499337876485823,-2.35801790338414,0.0445785618866663,-0.0204350166017849,-0.0136518099721444,9.43409746446577,0.0708566658020786,-2.54500323252366,0.0034029095915856,0.0277177676230588,-0.0040404951342202,9.67067407639486,0.647719428806772,-0.969627165416475,STAND
2.71,-0.0118840567107608,-0.0030868588852869,0.0002313232655964,9.42014561751575,0.595199263709474,-2.44275707179619,0.0334897648145962,-0.0236113395297198,-0.0136314148471117,9.45977726320727,0.157636228633213,-2.48116918620132,0.0165156480140769,0.0243528441093285,0.0028374738113412,9.64013548345372,0.656526228934193,-0.98005914165521,STAND
2.72,0.0079859239087885,-0.0087857938483971,0.0031684199842754,9.40092626280086,0.625655905253099,-2.48431128512012,0.0151961294634018,-0.022481058857569,-0.0101101181939782,9.46898151870064,0.187513641212883,-2.49869172838225,0.0244651219749999,0.0252161658526074,0.0115658030641588,9.61021686098232,0.725506097371959,-0.950209311367688,STAND
2.73,0.0180298902691755,-0.0139868912854213,0.0032013661308338,9.4081083413183,0.588065466297226,-2.51648138532462,-0.0020611492288877,-0.0184581164831268,-0.0043872056669515,9.49091849994194,0.199324218414526,-2.54250160865613,0.0310157951563601,0.0209780351441606,0.0225153170548611,9.59822106656972,0.766722956947765,-1.02777245194775,STAND
2.74,0.017472865607314,-0.0093985213266758,0.0094660805515108,9.44301362434604,0.532799899289752,-2.55992259966685,-0.0079973608448789,-0.0190584591793845,0.0004010536209286,9.50454601664827,0.157858872724139,-2.57644963085302,0.0293012950137065,0.0181424979422347,0.0233924063928322,9.62219832127228,0.808935081717744,-1.00556102634423,STAND
2.75,0.0173067608470515,-0.0176431592409334,0.0098806841906454,9.4395835709332,0.527163923647528,-2.40315958877684,-0.0162382757586356,-0.017644292127731,0.0017025670087606,9.46431289068111,0.0769878824474503,-2.56442189764272,0.0165915657145089,0.0131268240779462,0.0290740395800281,9.71033849695261,0.830182415693887,-1.0122892815355,STAND
2.76,0.0135346380635689,-0.0192363951586853,0.0136146099828967,9.49337730469419,0.525551199144555,-2.43030546685225,-0.009584553144354,-0.015892247842067,0.0004010026312578,9.48632328531525,0.0885204617091534,-2.60786695745442,-0.0035034682829845,0.0002890734603743,0.0317544031293151,9.73104708451636,0.813832265001881,-0.977127212012466,STAND
2.77,-0.0011908863721024,-0.0085885342813005,0.0105996534884015,9.53615552376358,0.579593123083683,-2.41048775810504,-0.00452568711143,-0.010191823666734,0.0055287984659918,9.46642477096268,0.0296956124945343,-2.57849059107736,-0.0197631498946807,-0.0101457522786605,0.0302431445975198,9.76138655549937,0.740995307158294,-1.00503624462737,STAND
2.78,-0.0111914409690571,-0.0054178370947492,0.0098237469880946,9.52680663666615,0.588225660592709,-2.50150697124823,-0.0171617281642791,0.0009009233151735,0.0053654813404593,9.45445062134999,0.0601822949257921,-2.60545435518861,-0.0305862042580878,-0.0015942718367306,0.0266915398861097,9.7385357430676,0.754823104015933,-0.98553470836326,STAND
2.79,-0.0311496983271382,0.0043505261471194,0.0083826637405306,9.48128847121624,0.60133144532497,-2.52833956458972,-0.0241034760825866,0.0092969842811382,0.0141929834563657,9.41354926472236,0.0514840818784863,-2.68614661866226,-0.0338122814898597,0.0000245799240183,0.0193223387991444,9.76207527302395,0.758866361834084,-1.08309692041776,STAND
2.8,-0.0330345893682488,0.0090125709725116,0.0111053143324309,9.44952068657905,0.575117563418664,-2.6193162109726,-0.0184861193271326,0.0081549446701717,0.010690921320852,9.42930314680984,-0.0145845855942226,-2.72317682084503,-0.0316622623762666,-0.0038474292586787,0.0152480193245664,9.7362793802983,0.738168445520625,-1.12701364989329,STAND
2.81,-0.0433266703808069,0.0045801483277954,0.0121231124694756,9.4448607409982,0.45852367827867,-2.55770977229945,-0.0188503676584297,0.0079720459307684,0.012161354428373,9.40931513941907,-0.0374906288388583,-2.73929757833384,-0.0353381977291029,-0.004821209983084,0.0126100965084089,9.72595469539866,0.732704906540498,-1.10555022961666,STAND
2.82,-0.0401884585406223,0.003910089015424,0.0144330595127157,9.36379178751403,0.464281418649887,-2.66031785649381,-0.0373996183307591,-0.0076484620207995,0.0103697245077023,9.4115545547816,-0.04877659836363,-2.79803261962459,-0.0286967831128453,-0.0142613425417308,0.0062731523019529,9.71814837163733,0.724720994375366,-1.1390563732905,STAND
2.83,-0.0402693873090054,0.0025173325314626,0.01506716801127,9.36147910028388,0.448048958092525,-2.6414870512746,-0.0324641488313051,-0.0107181908074979,0.0096247116141893,9.37639891719844,0.0071109925084042,-2.83096881844108,-0.0357104332163969,-0.0177252488962573,0.0150756738869293,9.69211746499869,0.704737415667793,-1.18436678631163,STAND
2.84,-0.0375164462421499,-0.012612506586355,0.0189388736453978,9.39589189563931,0.489349759022781,-2.56827503741013,-0.0309631373733545,-0.011540938008989,0.0035594376015674,9.37385877429493,0.0183483941935934,-2.77326266943526,-0.0300084390762179,-0.0161820349724772,0.0181945846385936,9.69981648792481,0.710910709872364,-1.15296364864169,STAND
2.85,-0.0493071989215017,-0.0197522419804463,0.0176780970890953,9.40848247601631,0.46059051998335,-2.49477006317498,-0.0265250741581029,-0.0227820295151182,0.0048334941360584,9.3703724427912,0.0169316242305808,-2.66304204211023,-0.0360518073736738,-0.0078379773749978,0.0279961457784072,9.71799986761383,0.720941959658559,-1.14271576562556,STAND
2.86,-0.0556902092576721,-0.0068507556106161,0.0161656765387523,9.49317573249634,0.435679768844433,-2.4081750635616,-0.024576738282637,-0.025761995953713,0.0033584176818814,9.44649393329917,-0.017747069078324,-2.60520953684906,-0.0394000641991303,-0.0017694140024922,0.0251884985800775,9.72112382852651,0.754372157105506,-1.07896322143117,STAND
2.87,-0.0573094380532269,0.0019922534104093,0.0169975904927278,9.55223849821005,0.382506567677257,-2.44633125060809,-0.0298770988600409,-0.0228728583504821,0.005577337398531,9.51143237725348,-0.0581493607129162,-2.52650840077394,-0.0431291604217276,0.0041342566076858,0.0240760983291924,9.73133592954688,0.734408831278955,-1.02239917557591,STAND
2.88,-0.0464194689164734,0.0052684318537016,0.0098291119396453,9.50436110153589,0.380139689076551,-2.45432799289108,-0.0351345389856425,-0.0088773827955995,0.007619606736945,9.52146798161165,-0.0650613970603628,-2.49590324586618,-0.0505099791776298,0.0056347239706884,0.0195649729720199,9.74191896032786,0.737290411989382,-1.04321274080245,STAND
2.89,-0.0328232401714477,0.0118082933998899,0.0098626437922099,9.5094808795385,0.327348789443952,-2.46624036446971,-0.0368577788434677,-0.0010290784480108,0.0081810301311275,9.54797526874713,-0.124587481238017,-2.55537558193664,-0.0528047114310443,0.0004671635896942,0.0162322370863322,9.72274596851091,0.640738953494736,-1.01669050978568,STAND
2.9,-0.0119515862156296,0.0119019479381354,0.0034640424481233,9.47041426601505,0.338450830825442,-2.52577274672954,-0.0374068940303684,0.017694742798035,0.0104039081583834,9.54894445701114,-0.111680607977533,-2.60767939444696,-0.0506353720464189,-0.0068340990819282,0.0113870536794667,9.66350697093654,0.632543087754008,-1.01910325474062,STAND
2.91,0.0085345190931867,0.0084474814556149,0.0003429571853749,9.45898761741665,0.33224438672545,-2.5968514310675,-0.0296671754270585,0.0207721299278699,0.0111218803845396,9.46130602323321,-0.131866223763691,-2.54461737609636,-0.0434516531203704,-0.0105016326937215,0.010002513345988,9.62236265211737,0.636456180159965,-1.0108664500041,STAND
2.92,0.0203628235848159,0.0026379428795259,-0.0008712843806788,9.39942981021438,0.323473106346343,-2.67698332976188,-0.0329669447914013,0.0183491017521365,0.0052488797743387,9.36199772908287,-0.0715945851179949,-2.60832390260481,-0.0349568034555095,-0.0122284220447871,-0.003303319687296,9.60409489181599,0.624696791203155,-1.02292283159386,STAND
2.93,0.0336966436699966,-0.0004635814217485,0.0001937197341145,9.42779480898365,0.366915056115854,-2.56947733658966,-0.0244597212208241,0.0083392397347192,0.0092555169766479,9.3966018963796,-0.09091642193387,-2.6225308876893,-0.0272206358041455,-0.0228724845567983,0.0010229333584933,9.63466215202304,0.616093034064316,-1.01157990978301,STAND
2.94,0.0216056842546214,-0.009749867317962,0.0015706063835259,9.45481533377605,0.444682544563953,-2.46531046959379,-0.0137235850371267,-0.0021171509287164,0.0042542643711987,9.38405465381972,-0.0730967051085507,-2.5956022007414,-0.020704182225462,-0.0278745683901255,-0.0007826645692135,9.72700479273353,0.611979418867573,-1.05311163222364,STAND
2.95,0.0128199472490546,-0.0114674649934685,0.0048586982400757,9.52172415609757,0.500308694761445,-2.4407214617665,-0.0160817349791895,0.0022383108207883,0.007389673652229,9.45176865778812,-0.12495016100315,-2.57345363885918,-0.0122042304079091,-0.0254420535853936,-0.0005873455423865,9.7141405157377,0.633081793165496,-1.05721038037306,STAND
2.96,0.0031321839880897,-0.0006764829153761,0.0023086333693798,9.56970621143754,0.586869964930372,-2.45657326941783,-0.0182960461713716,0.001144288742607,0.0035354831588704,9.41554955641489,-0.045340647405741,-2.59940567375199,-0.0036569050269018,-0.0171378561165667,-0.0026639326537248,9.78103640909545,0.647937108983763,-1.02401076597626,STAND
2.97,-0.003379016898923,0.0128635009179753,0.0021833511463649,9.55745910684064,0.506869803786621,-2.36444167318178,-0.0132687986947755,0.0076171197001828,0.0024329171164949,9.46816423411255,0.0179398811323219,-2.63900147316849,0.0014299693718306,-0.0110700910594861,-0.0022375170269243,9.74450554541587,0.624537124869908,-1.0477884506263,STAND
2.98,-0.0212999498495011,0.022815835996981,-0.0024869045198263,9.47536466178162,0.463137060710264,-2.44482637667288,-0.0049807665476268,0.0173026889080631,0.0009619139230668,9.45866918304449,-0.0114085987615759,-2.62266947686408,0.004890403495521,-0.0088338160347458,-0.0047423851063653,9.72842931715949,0.587575626082712,-1.03674480193746,STAND
2.99,-0.0260972439688711,0.0289094437774144,-0.0040781717171476,9.46063503003405,0.476350734649887,-2.49873618911548,0.0052104982465581,0.0255678832810075,-0.0018009079865636,9.43057413350421,-0.086722768626886,-2.62822687526,0.0084655700817273,-0.0110279013611405,-0.0118127160506798,9.73077750274582,0.585642650567357,-1.09221905544418,STAND
3,-0.0038892059987634,0.0289206798727303,-0.0069274373586622,9.3953877964436,0.386501583174721,-2.51895103260963,0.0047183407387351,0.0292952019785152,-0.0062016911312067,9.43270240480211,-0.110160641830373,-2.63138913430365,0.0133683015942659,-0.0029668397413142,-0.0037874450000467,9.64369134386967,0.623293206701473,-1.04405234159534,STAND
3.01,-0.0086114540960269,0.0200388950183575,-0.0117505878583956,9.42616062607539,0.386248489673895,-2.54620525863537,0.0115123881943763,0.0263609066490341,-0.0080573196209486,9.47669636887047,-0.112587541342802,-2.60628457347969,0.0162732170465417,0.0062455138917782,-0.0120100457064853,9.64950933343328,0.679343818389683,-1.11210701155963,STAND
3.02,0.0111466396832757,0.007459949767694,-0.0090562840389349,9.46535867689599,0.399418969736079,-2.62666355002113,0.0182152938865282,0.026547636467714,-0.0095388386224666,9.42094524283728,-0.0547104350434503,-2.64688582363093,0.0168263335022867,0.0120106032618682,-0.0070327366914098,9.65764293526137,0.71008172473694,-1.15622171650916,STAND
3.03,0.0285142042369302,0.0155979333457521,-0.0127426588736707,9.47801378140945,0.394994959118876,-2.69340374551194,0.0245094086461597,0.0154394719154331,-0.0093843693144655,9.47512331805966,-0.0644261325395242,-2.59026307996577,0.0138152112999713,0.0123799328453899,-0.009255765560567,9.74277279214956,0.714474772003906,-1.03104596942212,STAND
3.04,0.0355101142754185,0.0233712185236794,-0.0139271014133855,9.48257888488587,0.353656945087799,-2.56470939361569,0.0269035918844836,0.0102941514291164,-0.006273395459517,9.47032907270586,-0.0061802414966577,-2.51878076226814,0.0029309339735001,-0.006963529289703,-0.0082441647229803,9.76091714460167,0.727084796594309,-1.0196484584913,STAND
3.05,0.0303277914191469,0.0259174348660174,-0.0122443810137346,9.46952757903086,0.3934254176055,-2.49749360489998,0.0239163119484864,0.0103878079783051,-0.0070033477003727,9.43576472987698,0.0497681478467462,-2.54973960555639,0.0048742138889728,-0.0308792787171979,-0.0024848910993098,9.79420824357828,0.738571837383739,-1.14090686190211,STAND
3.06,0.0455126903303487,0.0256517496437121,-0.0122824623386538,9.51448131907505,0.499211136645011,-2.4948436172264,0.0027232176152903,0.0084995774827365,-0.0045855376074228,9.41474273456757,0.100838957534489,-2.66047108048865,0.0061399602120238,-0.0179083268326194,0.0006306233821132,9.81436413140706,0.725024199413596,-1.10889840549344,STAND
3.07,0.0413996995321349,0.0239373804905969,-0.0051599544241404,9.45058628607305,0.543183939171896,-2.56064606956904,-0.0042111442594166,0.0161157290217569,-0.0021775373581972,9.42632340909489,0.106903428659314,-2.68020516586095,0.0089062043174656,-0.0135710378142482,-0.0015225759721004,9.79621855500832,0.735844408925733,-1.1994014202128,STAND
3.08,0.0300787667793467,0.0162774240456843,-0.0112097899392563,9.44360055648951,0.579960601890243,-2.52786474532017,0.0043509357800109,0.0164426925577563,-0.0047608006335033,9.39815381432901,0.0318529980155694,-2.68621736693818,0.0171192990964591,-0.0250408299651298,-0.0026912616705805,9.74700312735527,0.733049341815975,-1.22535197431595,STAND
3.09,0.0142501141165274,0.0142731905701948,-0.0051356509078384,9.43769558550833,0.58270491259057,-2.49268785254454,0.0056174497432735,0.0115292501451611,-0.0034828737775192,9.43243484764774,-0.0367143366845051,-2.59989250389666,0.020842625722374,-0.0182037751879953,-0.0023284784411043,9.70788487625484,0.712088646977144,-1.19546986624916,STAND
3.1,-0.004584179864123,0.0068452520080833,-0.0036166134231488,9.44302941496245,0.699566271184653,-2.5523089720876,0.0115903243506438,0.0113452769294745,-0.0020210576748807,9.43273315077819,-0.0366783952098819,-2.59881052141852,0.0197469914633337,-0.0128359545414965,0.0004806770440248,9.69737311578988,0.707379265009274,-1.17546934761734,STAND
3.11,0.0041224395442996,0.0017136341115963,-0.0071216732660454,9.40776437001771,0.584837169897687,-2.46179019156498,0.0215271686522048,0.0028658411122433,-0.0101256375211979,9.43577879186403,-0.0839193940610157,-2.60957112501083,0.020012856634746,-0.00823484884141,0.0033481838442825,9.72349335778121,0.748770173023611,-1.21039735762193,STAND
3.12,0.001975563001023,0.0021918273486553,-0.0024972390889732,9.42647015059604,0.492900792222836,-2.53927846491555,0.0218922881037228,0.0030521627663225,-0.0115954269853411,9.46731081035088,-0.0554606206605855,-2.61318255957632,0.0118694751510474,-0.0070682746832025,0.002230582971762,9.65380853017889,0.736347241135487,-1.19188466195284,STAND
3.13,0.0006924812175089,0.0056942302284997,-0.0059277408833921,9.44803189378989,0.478544478501321,-2.51624321647052,0.0215264179115202,0.0028674376676458,-0.0101256241600151,9.49596718536817,0.020391351630572,-2.60538813142219,0.0050206271151826,-0.0091036954680804,0.0042097659893577,9.67981027618166,0.75510441908047,-1.1487625059292,STAND
3.14,0.0158348252057254,0.0074645210960635,-0.0052114638730212,9.48215941785705,0.459072386446478,-2.56070990685732,0.0248085223173561,0.0179683891108535,-0.0042381421184916,9.50463048484016,0.0735714274896346,-2.6138904751102,0.0012729728474732,-0.012505381278982,0.0046143320315328,9.69459562781468,0.708392395930921,-1.12493271597069,STAND
3.15,0.026048962539817,0.0159622229482644,-0.0047184673900844,9.47243561358126,0.480017706298175,-2.51031150466421,0.0210438796832797,0.0192507143346121,-0.0018451495040143,9.43173005045149,0.133806806294956,-2.46400546680517,-0.0122471635581403,-0.0058366634192485,0.0002204779093877,9.67631218124029,0.696364009703127,-1.1369338605912,STAND
3.16,0.0143869087828712,0.0245535594968446,-0.0047976310064325,9.42493500061878,0.477531890388685,-2.51718526582048,0.0107623773551013,0.014100599764176,0.0012843667642416,9.43596349202978,0.0988506125273284,-2.52689976168928,-0.0173785433057765,-0.0050369278628804,0.0013269990114853,9.72524555192465,0.699312836716203,-1.11343861576823,STAND
3.17,0.0109958869565593,0.0155851903244623,-0.0060695647343117,9.46984154444631,0.560369156785396,-2.37251745966367,-0.0061670549645433,0.0190970433950733,-0.0007181179084773,9.49853844396014,0.0324905654543892,-2.65254503415284,-0.0201673468707399,-0.0059381317308116,0.0042472368025267,9.66819001661681,0.666442887048677,-1.09283093894657,STAND
3.18,0.0019789856213356,0.0076500040383423,-0.0016387899827728,9.48657908215572,0.598742963600029,-2.33606815507137,-0.0133776018146148,0.0234066416463704,0.002780518217805,9.39156868904729,0.0031371437478431,-2.65960008165798,-0.0194097063272877,-0.005602771949492,0.0008597930713609,9.7069575589951,0.687374236182851,-1.12541803697803,STAND
3.19,-0.0067771042734082,0.003896343546306,0.0008900771681512,9.53217183528489,0.585352967348051,-2.30845328312302,-0.0100259682669412,0.0235018563852906,0.0020434963767054,9.39265874209773,-0.033288607427425,-2.61003598229422,-0.0179827313475561,-0.0039335807793623,-0.0021176201494318,9.6909863759782,0.650383986246408,-1.11364978066065,STAND
3.2,-0.0098590313053152,0.0134526106238705,-0.0004539468968208,9.55888840390336,0.602659664744887,-2.32155693237411,-0.00435491279504,0.0207998438084572,-0.0016355989793165,9.40308535881531,-0.0037156984740454,-2.62313906933464,-0.0140109438405081,-0.001802283867712,0.0026203022779558,9.71946197633623,0.666946876694899,-1.1243235620762,STAND
3.21,-0.0078384994624763,0.0136120779728913,-0.003697103180415,9.50868301381375,0.584708847855008,-2.3105980797822,-0.0078481574872605,0.0253892949303372,-0.0003446647044473,9.50036674425259,-0.0161785789575906,-2.54357702651725,-0.0109100993339599,-0.0031682128996431,0.0010437636636216,9.7012450086474,0.655065711006758,-1.13563995946266,STAND
3.22,-0.0212181399685619,0.0187342788553297,-0.0040444881731331,9.47992660453015,0.575344409336833,-2.4192676209029,-0.0073411016251412,0.0208921553673685,-0.0023690296625953,9.42154833369969,0.0665475241858901,-2.59038282981803,-0.0038588191301082,-0.011708028655964,0.0057166711201057,9.67027291680114,0.641117921117452,-1.07134231032947,STAND
3.23,-0.009547306428653,0.0265200073511577,-0.0013812855450274,9.42485514290541,0.548778511046198,-2.51337582606818,-0.006949017755515,0.0202911603635756,0.0024064327326953,9.47511917468342,0.0933334484811656,-2.58098230848487,0.0076984180984956,-0.0165107680635491,0.0065957736636002,9.6220876953664,0.698503974746052,-1.05583167356529,STAND
3.24,-0.0127207239920517,0.0183073217195401,-0.0046704576487609,9.38366467699336,0.459664241009878,-2.52986940796652,-0.0060743200721956,0.0159790605343553,-0.0010875922240769,9.45338353989582,0.045483450790994,-2.49017318657383,0.0087681102976737,-0.0184429636452523,0.0045506999619648,9.6299457168685,0.727866575025435,-1.10248202719665,STAND
3.25,-0.0166285924964419,0.022807656573008,0.001294460779896,9.38043458627458,0.501707806133731,-2.65493173849386,-0.0117011406952515,0.0171209440249273,0.0024039197489507,9.47932285945667,0.0096871903253042,-2.54174551151824,0.0113357059007437,-0.0214150207702082,0.0115059694098517,9.62519271523022,0.77782093830598,-1.15097963319741,STAND
3.26,-0.0065064614231475,0.0189960183221562,0.0007097678606627,9.41247187131634,0.443150263953767,-2.53699667641171,-0.0191884080551223,0.0181231662845872,0.0069969899780447,9.49648943140905,-0.0428809987661428,-2.63110950598119,0.0076521116543631,-0.0223791969454157,0.0088766398907317,9.66151303466148,0.823104286328841,-1.20860678364132,STAND
3.27,-0.0076133709560927,0.0143705733523845,-0.0057099050368328,9.44056943980042,0.341607837003576,-2.52261988387026,-0.0139759084138901,0.0183580766721953,0.0051609288288461,9.42719925845801,-0.0171138927501673,-2.5458484041269,0.0018057783678343,-0.0287807301753185,0.0118565870947711,9.71829268163596,0.854834662330229,-1.23218377968316,STAND
3.28,-0.0147427954264127,0.0072307916955385,-0.0031516685175473,9.43200660314325,0.475233573415401,-2.37461957627408,0.0031088591232859,0.020576077882904,0.0002073178546734,9.45179602652087,-0.0294755362762944,-2.59144138682675,0.0024544462319096,-0.0240130351682299,0.0130289959306983,9.74093488111899,0.837292145723816,-1.25485519513916,STAND
3.29,-0.0060306406654603,0.0075602718112311,-0.0057857977249421,9.51685323936083,0.559247097458148,-2.4522711962392,0.0093617538381931,0.0110255862306952,0.0005661833796663,9.42846545279094,-0.0539693689210088,-2.49518884119476,-0.0152803432288643,-0.0199067379248582,0.0145532458471984,9.79211463305832,0.81341396645198,-1.209854030706,STAND
3.3,0.004444583432188,0.0147851228747073,-0.0080388263888406,9.54995703690884,0.574567839369839,-2.49896858292127,0.0010941677072366,0.0132331390013456,-0.0043943200317148,9.48434046078185,-0.0381686178793916,-2.54526933287134,-0.0234843502239045,-0.0084345283730648,0.0157285807214948,9.78306659566012,0.721355748201414,-1.20694254731322,STAND
3.31,0.0007504110008376,0.0145818255159971,-0.0049494183879535,9.484608847106,0.484221658040365,-2.52074118125578,-0.0064043747336062,0.0269117113540052,0.0002090812309581,9.47280483354614,0.0294652982132049,-2.61718540692658,-0.0383864565574132,0.0024451999073875,0.0120576047913374,9.75231470512146,0.70668263942703,-1.14199367238152,STAND
3.32,0.000927423090333,0.0173708149060271,-0.0062153296396427,9.47360206645552,0.540090188394471,-2.4726454935987,-0.0084543589077315,0.0330184887198738,0.0020514405146947,9.48236253853356,0.0461109476525117,-2.57643698908744,-0.0395979400188165,0.0046537366453993,0.0051659905657559,9.77987529384026,0.661872689673737,-1.19273054997276,STAND
3.33,0.0139997675552238,0.0155581427747105,-0.0023503975144053,9.43361843577285,0.500953992109847,-2.51099866375082,-0.0046389724919534,0.0301768244836923,-0.000520656132355,9.45058669184993,0.005344052123238,-2.51661693028559,-0.0377291180604798,0.0089295857376953,-0.0025439278074342,9.71374071696964,0.708426537809473,-1.18593881085466,STAND
3.34,0.0103451984571907,0.0078638344873411,-0.0008702449323674,9.41372328134028,0.481118841721585,-2.52989113965368,-0.0090037605092891,0.026403377567548,0.0042471955301338,9.46234135020293,0.0476188347160915,-2.58211195115292,-0.0371068210230109,0.0043927514242074,0.0001446447285369,9.70815256066394,0.676308160564874,-1.19462816985102,STAND
3.35,0.001854443102003,0.0137488511505278,0.0006082249155238,9.45055252042398,0.538799499103331,-2.4735067289811,-0.0124424305429607,0.016755050007641,0.0053343684838118,9.4398817284363,0.0725483360621695,-2.58571372527738,-0.0340940855050958,0.0040217719746396,0.0023671002682968,9.72414694315874,0.713880470381451,-1.20602928708946,STAND
3.36,-0.0032053606748197,0.0156541607686276,0.0008973194269034,9.51137033080957,0.513077293981922,-2.38837707597471,-0.0223144063980499,0.0102276523349987,0.0067848408804692,9.4402348737749,0.0724255198975958,-2.58442753936042,-0.0389150084172059,0.002555543084099,0.0048277573982502,9.73445898564112,0.695693847928872,-1.14943782078473,STAND
3.37,-0.0051459559991985,0.0059697730959434,0.0017828242760976,9.54437412462531,0.589325198097711,-2.31639683927167,-0.0248834651336611,0.0089452486789221,0.0043920902085448,9.43785868243918,0.0833058896600788,-2.52474515775274,-0.0379619401477963,-0.0076853069152416,0.0080897798923769,9.69801037181606,0.671920253118708,-1.17174113690228,STAND
3.38,-0.0030331186209977,0.0075253143162315,-0.002090773960741,9.54701121205092,0.520652667308617,-2.31013796164854,-0.034898264357565,0.0071037656626873,0.0063979581323235,9.4957372398306,0.0024697170692576,-2.48621810222294,-0.0346563528921174,-0.0068953724758291,0.0124178177958253,9.72418539144032,0.690310061138102,-1.12821788300509,STAND
3.39,-0.0114346515210961,0.0148049371290703,-0.0012468444135935,9.50691980510707,0.481620163782759,-2.34893277421439,-0.0307597366199957,0.0060101360867563,0.0025436682154608,9.49590035487387,0.0028612717473018,-2.48559460658524,-0.0305462256880821,0.0001059878329713,0.011084621411104,9.69571600745369,0.673131658958609,-1.11783148252348,STAND
3.4,-0.0115257348409064,0.0079516770307139,-0.00147544054649,9.47939271650495,0.499247379639507,-2.33669962664708,-0.0281060878397144,0.0168490756984715,0.0045873536649687,9.53056549561702,-0.0161136467335453,-2.499706192713,-0.0332692578374344,0.0016436779224447,0.0109771261004912,9.67756297584444,0.660642735237846,-1.12870260838945,STAND
3.41,0.0103493534936381,0.0133231536285847,-0.0000036572605491,9.48633063527846,0.519928170513384,-2.51210098876333,-0.023496365965011,0.0247049855401808,0.0051600348835453,9.47514792261504,0.0048720948938755,-2.49391206322926,-0.0270703505787286,-0.0010885696609262,0.0078091707082161,9.65478913004068,0.676322072083729,-1.10831520747076,STAND
3.42,0.0242628038713531,0.0220292066383182,-0.0025755629164364,9.42885629879156,0.476507976930738,-2.58869875169352,-0.0188866822862399,0.0325610446128155,0.0057342083976739,9.50757868025131,-0.0037630050076189,-2.44761460555382,-0.0208892369428929,-0.0003890370055937,0.0054070105648853,9.64914677205754,0.643300401679079,-1.11791244102551,STAND
3.43,0.0242652926606092,0.0220297652800586,-0.0025754716407717,9.3788859824939,0.45773664977577,-2.57729856116835,-0.0219060817105064,0.0334232527755249,0.0114256715701329,9.46551579876711,-0.0378388689891449,-2.42000788589927,-0.0195776839345231,-0.0070311541264941,0.00772947220375,9.62634416037308,0.682179231605258,-1.17559464788643,STAND
3.44,0.0202982481610328,0.0121845516535434,0.0015501194414676,9.38324375960517,0.52345462448728,-2.61525282228731,-0.0259197290324559,0.0306305183237815,0.0084729415963149,9.45884744366513,-0.0416739833993588,-2.50796479323852,-0.0154594825760906,-0.0162006941302659,0.0063576444148109,9.61828830484427,0.67459142375364,-1.20942598818068,STAND
3.45,0.0096391147677658,0.0021695306551727,0.0050617644733508,9.39069075390766,0.462824707490484,-2.50308077751006,-0.0195813434642391,0.030630822785442,0.0084853535904126,9.42957821927681,-0.0935746202948136,-2.50722209970876,-0.0172307453936477,-0.0249082150545563,0.0094985116556886,9.68767087801551,0.662878898749821,-1.15316102399497,STAND
3.46,0.0235454246176391,-0.0055032936195864,-0.0000878546714381,9.47251285595001,0.506571924327315,-2.42069204703759,-0.0144042687127462,0.0197450736955352,0.0068157612989981,9.4044763032261,-0.0580645986153449,-2.45171676241877,-0.0145101466274033,-0.0264450721328158,0.0096095063541966,9.68971986255179,0.659682497878699,-1.21003186712904,STAND
