time,left_angular_velocity_x,left_angular_velocity_y,left_angular_velocity_z,left_linear_acceleration_x,left_linear_acceleration_y,left_linear_acceleration_z,right_angular_velocity_x,right_angular_velocity_y,right_angular_velocity_z,right_linear_acceleration_x,right_linear_acceleration_y,right_linear_acceleration_z,pelvis_angular_velocity_x,pelvis_angular_velocity_y,pelvis_angular_velocity_z,pelvis_linear_acceleration_x,pelvis_linear_acceleration_y,pelvis_linear_acceleration_z,label
0.01,-0.726706490232866,0.679224007833045,-0.161821259865214,10.0795827971714,-0.25701085960397,-1.2517437558695,0.72662452735403,0.911459194209726,0.202366164690314,10.1297836060462,0.498886101809397,-1.60139882528167,-0.19266949765613,1.57331008977429,-0.12206093310767,9.59532561079257,1.18950247015286,1.8745333967244,STOOP_DOWN
0.02,-0.765753743405955,0.694207795366175,-0.15161901570088,9.83569024970401,-0.0567317245486324,-1.01639606777483,0.844733979599547,0.952326576712663,0.193304735011717,10.1705624535752,0.259152562557547,-1.53141840141891,-0.243630948050921,1.67451437127174,-0.131834427591154,9.74104438581922,1.22276273365606,2.41577261845718,STOOP_DOWN
0.03,-0.79592723048541,0.676462835447752,-0.133768806727416,9.73068672996383,0.13795464881425,-0.885516216186191,0.903630364743443,0.965064574768802,0.17867980747521,10.1747686683684,0.194360569433444,-1.43533480338832,-0.249667912328247,1.77353190023299,-0.143612484919755,9.70514715442733,1.32039810532954,2.7247929091639,STOOP_DOWN
0.04,-0.8447558633931,0.673239970114291,-0.133942539271175,9.74252184225431,0.296786793919013,-0.623906282401871,0.961822473699495,0.984665171585386,0.149104634213956,10.1389301963367,0.277413923062907,-1.09783182571128,-0.20022841792276,1.81486315069542,-0.140039828923307,9.73303376948159,1.59270800144137,2.88470573897081,STOOP_DOWN
0.05,-0.861980914342305,0.683620052569398,-0.164969980775506,9.83732166732558,0.574933386361217,-0.4463416300723,0.992313983251594,1.02722648532233,0.0980147770356838,10.1598537279456,0.512636493043661,-0.773082130770934,-0.158336427510445,1.86328244350808,-0.123250238082805,9.6489180786641,1.93192731065675,2.61647871055945,STOOP_DOWN
0.06,-0.83139132401385,0.68475884664433,-0.199616913730496,9.91595652355242,0.800847520433657,-0.12881955996206,0.988746130561348,1.04101174691369,0.052319546818762,10.1003157372543,0.760435546110025,-0.549240375543352,-0.174536365020032,1.96098851762791,-0.0978431332201536,9.10207796414923,2.07102453807861,2.42565886103599,STOOP_DOWN
0.07,-0.817741806614532,0.651442686725206,-0.218310355242094,9.78555459712834,0.618764098637673,0.178825556150672,0.992554928606604,1.05197729726228,0.0251538221795946,9.97592871006682,1.00775521211056,-0.135897498256665,-0.201666082689468,2.01665751692559,-0.105372234451723,8.46308245444555,1.96132437272,2.57219115935445,STOOP_DOWN
0.08,-0.807139214563516,0.597622387812456,-0.209721246157311,9.77483188341624,0.0830087664725005,0.218562255529245,0.958093832688286,1.05347685741646,0.0305137580676361,9.85888217632888,1.28348478575702,0.401880759503219,-0.235331187223974,2.03647072829325,-0.122159433637534,8.05573594672225,1.71430507929482,2.62167464591732,STOOP_DOWN
0.09,-0.763081405349612,0.564872759559106,-0.191543596898914,9.76484310502925,-0.601992816113266,0.258395175529653,0.839404280179218,1.03124698276381,0.0460341416714384,9.54926417592885,1.63324993332201,0.726643049081182,-0.3043043425899,2.02823056590947,-0.14475428497723,8.00181129630893,1.41483747140407,2.649021764148,STOOP_DOWN
0.1,-0.679626725702483,0.537340598322136,-0.17670297000171,9.63983209485335,-0.875880835622327,0.492330057721427,0.651812323895154,0.976361819913524,0.0582272472168088,9.20487103767123,1.5436198020933,1.09306520619269,-0.386161726677727,2.04067522980847,-0.170426047132833,8.30619586016903,1.06730528236387,2.98458729826761,STOOP_DOWN
0.11,-0.57103616864502,0.517783548193574,-0.15360329207156,9.55720171351361,-0.607088861312899,0.668923570146907,0.41050781883105,0.912168009786042,0.0397672870194681,9.21696526682569,0.864446584072858,0.889238219781899,-0.435512020272888,2.05116887367515,-0.200959835429225,8.46780317609956,0.765121844559847,3.19274173598444,STOOP_DOWN
0.12,-0.474464433698542,0.493568592873664,-0.15235769462773,9.42365496359649,-0.0769807166566693,0.644480465127912,0.255518159687112,0.868656033912367,0.0323520744788708,9.61176488156524,0.441598094738113,0.141834660116152,-0.429690139938364,2.07227502730795,-0.209204735811082,8.51155463047544,0.400337744428634,3.1350918508883,STOOP_DOWN
0.13,-0.424180360020412,0.498971607345649,-0.163290757402244,9.48893810079072,0.393026136848386,0.690637822908666,0.164822971067249,0.864492198376846,0.0739950355832166,9.61768446276169,0.200983469717067,-0.0106889879750854,-0.414407436109644,2.08346917020314,-0.219795828433896,8.61768553536055,0.267898423712414,3.37132444052788,STOOP_DOWN
0.14,-0.428086491088297,0.521364494060926,-0.18430200495475,9.4693116345858,0.649923264048088,0.906623563218211,0.115359722212901,0.786371127154895,0.112389719368171,9.69527876731596,0.0525155332155135,-0.0015477511797247,-0.385207435421077,2.12592752329379,-0.224202965388727,8.636942512222,0.341869540159289,3.65844071548908,STOOP_DOWN
0.15,-0.470935399825776,0.557683044919752,-0.216645442758737,9.48924752054828,0.722947206910433,0.996442386675863,0.0979808618892657,0.705150214439944,0.132024435872092,9.72930855271957,0.19321841781577,0.0683895030801174,-0.328586779339255,2.12128129078315,-0.219239169325234,8.2678461258643,0.352627680035287,3.64368018260778,STOOP_DOWN
0.16,-0.486809244060028,0.607442808758559,-0.229345074760088,9.84056898555672,0.662123991607423,1.20148206163708,0.107440699208883,0.66973491089961,0.140338132346066,9.46809248946264,0.157226405703069,0.422958144915733,-0.229281770815715,2.13096575747625,-0.194818471588658,8.0789273189519,0.325234658536664,4.11277231063419,STOOP_DOWN
0.17,-0.486630910746459,0.658046486397018,-0.207368387223653,10.0970667776189,0.198559866747327,1.49794592717285,0.0959081785586647,0.610524608514011,0.13381393558528,9.20064445963094,0.0881474781737831,0.794179470718402,-0.161343221225963,2.12075512802072,-0.157599023756851,7.87383346931523,0.205399000091898,3.89960452390663,STOOP_DOWN
0.18,-0.479795131526327,0.703949737534307,-0.180239024932397,10.3592002195776,-0.304262241475877,1.91211320429321,0.0535809951096331,0.61649266737003,0.132443564878286,9.33237938124547,0.119587006110502,1.14203953673786,-0.194908688237011,2.08102442839492,-0.114387764539358,7.59447320425315,0.226530345220297,3.4985321301518,STOOP_DOWN
0.19,-0.450401766037704,0.732819508289332,-0.15710853078939,10.2462625656095,-0.775208555102043,2.27999433574679,0.0346983152217073,0.642658452356439,0.123850761765114,9.43544245601168,0.295332747286244,1.30374778837613,-0.244225603191379,2.09860936007915,-0.0915685856290164,7.32880792776919,0.318552979179528,3.85944540283327,STOOP_DOWN
0.2,-0.384420579869145,0.721925437369084,-0.152652470435172,10.134695493822,-0.501806064364107,2.4313830729927,0.0909295565811319,0.700839683861003,0.103432128909678,9.70742633706664,0.36353069770265,1.55548799046327,-0.232094264995377,2.09544683781295,-0.0649051864699434,7.04628596840025,0.401133832698976,4.06536506491689,STOOP_DOWN
0.21,-0.315416718048407,0.676154521035125,-0.162692942170747,9.78588418364814,0.151337506896685,2.28486143392047,0.146037318017838,0.787773250126519,0.0550600069904149,9.96400111105463,0.492869584207673,1.43543467123371,-0.229011303060523,2.0811296726758,-0.056804190407609,7.19406481839196,0.467932586621286,4.63895340042256,STOOP_DOWN
0.22,-0.250120490125926,0.61363985654785,-0.192929200492519,9.29207949033545,0.558675784712766,1.86871962862801,0.205528373685731,0.795334661808208,0.0124164160044389,9.91245521221487,0.380609710074003,1.20802033884501,-0.222202587944909,2.07441743205816,-0.0590422025155103,7.38481575600011,0.654159820209979,5.00491475551218,STOOP_DOWN
0.23,-0.205731923642902,0.536964622176636,-0.219890451097693,9.09886132334613,0.78697032117723,1.3810678948842,0.259391875166734,0.747546251279599,0.0095766064382466,9.71553315769268,0.210820352589345,0.948185983447567,-0.199706831598811,2.0795607411947,-0.0770499016666079,7.49382826403616,0.895652691928285,5.50805756406363,STOOP_DOWN
0.24,-0.235369192678925,0.496746179157118,-0.219487117856461,9.43813232784276,0.819224796428067,1.03458037211845,0.289302807181702,0.684074697443459,0.0243758686111487,9.67756644134232,-0.0116546664770939,0.728702405739158,-0.176250261695384,2.08467469632101,-0.0966008299675458,7.39699350162865,0.954333087644995,5.69648750443498,STOOP_DOWN
0.25,-0.269994835793328,0.495289026306638,-0.213808121109536,9.6685850143152,0.689444665506719,0.964255536244485,0.306949682817221,0.649640706033007,0.02428804495838,9.85619637910479,-0.337032214921382,1.04679670907122,-0.126045081260053,2.12339723769478,-0.105062584770311,7.37162811800138,0.936886858392246,5.69643547639491,STOOP_DOWN
0.26,-0.255603870329705,0.493672210431851,-0.215852633740842,9.69165135624217,0.35265482167722,0.893875365539522,0.368994674112215,0.65214735579792,0.0099043555769113,9.77745316620823,-0.293788335555311,1.42042343061327,-0.106464351453858,2.09564248882494,-0.12276436259138,7.10398211415905,0.859347405679547,5.66849867952211,STOOP_DOWN
0.27,-0.167464128390772,0.446483018630964,-0.212138034240484,9.53805546597674,0.0855450595737626,0.551965022352514,0.381679978312674,0.595346581643861,0.0105353843202046,9.16190676877395,-0.173923494889501,1.73216796565653,-0.102052370126134,2.08884056587407,-0.147962435280062,6.86929242222985,0.717361846726411,5.954669069546,STOOP_DOWN
0.28,-0.0685122057098105,0.457769062942687,-0.194651552539951,9.38191457547963,0.100676319957612,0.565071158662294,0.309063435484439,0.459719768525512,0.0259511234038804,8.73256951049939,-0.0307532047000097,1.63726105266905,-0.102204783480606,2.09274407980424,-0.168848433244245,6.5974745650948,0.663108144643401,6.10403639211011,STOOP_DOWN
0.29,-0.0177816025072957,0.502883338525188,-0.168060538395921,9.50256631373743,0.451249193664229,1.01679264285426,0.190914377534264,0.359019381917964,0.0279554742570245,9.04503858883791,0.197955107185939,1.51001160782427,-0.0992313799014942,2.09044891530304,-0.168048255201876,6.2906831971813,0.652456491292366,6.35402799424703,STOOP_DOWN
0.3,-0.0588994769054801,0.50126679939981,-0.135328881344869,9.63952241889408,0.464156201979035,1.31572521780634,0.0557216644928659,0.343702687348157,0.0362199208665502,9.44539753858304,0.320537607907371,1.70583296482027,-0.124898727034997,2.05196999943703,-0.147955148828116,6.13786637049062,0.579788509624095,6.26681590048561,STOOP_DOWN
0.31,-0.125883499100215,0.464814543471909,-0.135644390853897,9.85059240059498,0.312596286697825,1.34810253781575,-0.0043197846686491,0.396433567974167,0.0430729824694774,9.6601860813769,0.111618881085793,2.07285099080072,-0.168671451057349,2.0339881599513,-0.133127227289877,6.00372466557682,0.504703081394377,6.47526199110393,STOOP_DOWN
0.32,-0.15203461564509,0.429437846153915,-0.158795009350618,10.194819551249,0.33891288451149,1.42873482582371,0.0010623495038877,0.45968901014331,0.0311417859898889,9.9136297828861,-0.153284301341398,2.71219487053676,-0.17200319512891,2.02032549710214,-0.132245553611551,5.74460066122872,0.556002784637151,6.70117372990451,STOOP_DOWN
0.33,-0.174816919340235,0.380011327818996,-0.17065565654707,10.0891928406511,0.266791764845645,1.52475681667644,0.0022208196000769,0.563365980615664,0.0297548083772274,10.087553423326,-0.139463963553594,3.29454571216134,-0.147902843230186,2.01594684428691,-0.150054016944197,5.50232893649098,0.651977032186768,6.98239352687939,STOOP_DOWN
0.34,-0.179136416407188,0.308817011643515,-0.178121833987605,9.64270475322972,0.243373463569655,1.43862637180026,-0.0780010113084591,0.614764240116822,0.0340276674197,9.85612368016471,0.373823739219237,3.41351298048994,-0.0880175914651938,2.00116247287045,-0.179299376155163,5.31901039619313,0.666619718897382,7.11497377676288,STOOP_DOWN
0.35,-0.165264457390016,0.263149712268015,-0.177812376224837,9.38743813267431,0.277363479145021,1.34466369079141,-0.155025194365504,0.560709473808973,0.0362937341400502,9.71145640865089,1.03251373567259,3.05790090165041,-0.042332654741069,1.99424742478046,-0.2117251596359,5.19482520450439,0.716729867127043,7.28473801818439,STOOP_DOWN
0.36,-0.157627693258522,0.264376583317838,-0.164517802849824,9.45674491066431,0.358184470710549,1.41521356604887,-0.211409193735853,0.533210637116509,0.0628242047634431,9.61282770086024,1.20628053419344,2.46108546637995,0.0067427958956142,1.98221589315269,-0.250995583661837,5.15744651046846,0.64401878567792,7.65966772175743,STOOP_DOWN
0.37,-0.122435711703963,0.319161511853518,-0.145729352018509,9.64968400834425,0.455176335626669,1.70796654454265,-0.228237343479413,0.524570699374216,0.10088035677852,9.64651128659821,0.993793211399794,2.0617655156597,0.004705622763225,1.93899454104348,-0.263021694253798,5.12990880107455,0.546510279705482,7.80145692329075,STOOP_DOWN
0.38,-0.080705714279996,0.34532635898638,-0.128925228985862,9.56823654384524,0.525039791140057,1.98195664373724,-0.180982529746516,0.493792228620692,0.122025543206781,9.58010570560306,0.681824956646817,1.95918526064884,0.0120775884020712,1.93864018487604,-0.253864409461763,4.91401774171389,0.57000753455578,7.81717382357024,STOOP_DOWN
0.39,-0.031469776219788,0.374326239567606,-0.123482569123981,9.70252171708666,0.610371714393856,2.27827323857941,-0.131402100165403,0.49029361015952,0.130084963082211,9.67517882367073,0.43838745254643,2.34603243088386,0.0198837050368184,1.91407398586736,-0.236743478350206,4.62672601590567,0.536915258693003,8.01701860444316,STOOP_DOWN
0.4,0.0377935990196702,0.363403145992712,-0.132855132422055,9.78459490799496,0.747186253114794,2.4023181802827,-0.146043705022739,0.504278397729,0.117788720303574,9.77385240753505,0.400293252917098,2.34093285847237,0.0279214407013091,1.88558414866429,-0.224353697593286,4.46625429980726,0.559964051131603,8.21452926750841,STOOP_DOWN
0.41,0.0865757598141586,0.300100664452863,-0.174041858084507,9.7968987272823,0.921401445485969,2.47996958540485,-0.149426970735747,0.476806708276465,0.0940406043906644,9.78556787950143,0.573838513079018,2.1438183772075,0.0033203874379454,1.82329644288689,-0.211856100498337,4.09108906826368,0.621615485503068,8.24789570550511,STOOP_DOWN
0.42,0.120975472857981,0.241133565001612,-0.2047240240827,9.82159038986315,0.947908662324293,2.4977079077031,-0.133656729712347,0.441144806885001,0.065500112788655,9.59556052225896,0.349026226828165,2.01767845655746,-0.0463655121591906,1.78727156317539,-0.200628186003335,3.92175732749325,0.673336477348781,8.4542353858448,STOOP_DOWN
0.43,0.155549817067281,0.203935608015077,-0.221066018298403,9.70606920782776,0.87312314772821,2.21626880438417,-0.147663125106028,0.409146125525959,0.0360347384647146,9.42135636855289,0.0851700026753652,1.85485857588005,-0.0484635015489113,1.75912683943685,-0.184320845783894,3.81437715052933,0.663603618312115,8.50734750327924,STOOP_DOWN
0.44,0.164712951815912,0.222631834633394,-0.192854486546518,9.67637429512832,0.63148252438741,1.86768478442548,-0.172034547696728,0.419244196819839,0.0167423450625424,9.40635213654483,-0.0066762325677332,2.06558762556901,-0.0654409382864964,1.71238701019546,-0.18325380281904,3.6203160875008,0.801177110321463,8.47861674208625,STOOP_DOWN
0.45,0.155482573921722,0.242209592562905,-0.138385351687426,9.51607586043964,0.288699608668685,1.81142192399342,-0.195780105149172,0.452657038799223,0.0097812862638852,9.54064583658875,-0.0574533511877652,2.59788387670856,-0.0775825249343269,1.68553658998513,-0.174593220761011,3.40942414887919,0.943609052665758,8.79786243567738,STOOP_DOWN
0.46,0.102581302045042,0.280643513954426,-0.091545823326939,9.45555723312638,0.0452524839089942,2.11455731578654,-0.189581202861846,0.475207012892943,0.0001769356166839,9.79820507531653,0.189678393513115,2.8260910801859,-0.0590379050950941,1.6454729761848,-0.163808806328356,3.17853545602746,0.954807160140529,9.01305080649134,STOOP_DOWN
0.47,0.0970367265178941,0.336033780098011,-0.0752941233026804,9.38244268204706,0.0440989733685144,2.15849524311484,-0.154095232119419,0.52097332048827,0.0123821825689638,9.70598642905267,0.690292572100785,2.87819295919643,-0.0455591463961011,1.59152433325001,-0.144410303071097,2.90034264945718,0.957342575298591,9.1597553593633,STOOP_DOWN
0.48,0.176762833548318,0.322122470929762,-0.0852629933560625,9.37967690381648,0.0934296702452248,2.07625020577875,-0.149373547419501,0.48041217343499,0.0036732036728162,9.31838565709486,1.20622139319096,2.69384042839887,-0.0364333053875829,1.54543138389962,-0.128845471231423,2.71593308762521,0.853803910944896,9.26634346885858,STOOP_DOWN
0.49,0.270935345085844,0.282416945550976,-0.106010573246318,9.31948720605194,0.368924949457272,2.30734160459955,-0.151433395159943,0.414654747231691,-0.006941445901597,8.95914623566503,1.42076122049977,2.27485310503569,-0.0105445507126964,1.49024415090757,-0.113963233538716,2.65055741067906,0.635349625778682,9.22822142991959,STOOP_DOWN
0.5,0.331493767476477,0.244934437035705,-0.117511265472593,9.20632114223522,0.690114457814402,2.32338328721233,-0.205281905629994,0.404643534022983,-0.0117189533521587,9.05211457531036,1.0693082275253,1.91740815726661,0.0020770275451836,1.43385969348921,-0.100071770168176,2.55997263916446,0.378561351585868,9.20683159934923,STOOP_DOWN
0.51,0.35395092480362,0.229676388929363,-0.114945342113765,9.01937413903194,1.13939341217826,2.25746076609201,-0.258268124645489,0.400706424149391,0.0080950443397026,9.36962491638962,0.50676354832538,1.7987722016255,-0.0229539441620099,1.37924472210322,-0.1016118649436,2.43869599602152,0.34936503184902,9.32396342264392,STOOP_DOWN
0.52,0.335398508828314,0.275041550639766,-0.131096586816439,9.1917136570535,1.64536206700876,2.07799201981208,-0.299372762559597,0.413018496929529,0.02770638930465,9.48433046253012,-0.0799669740406861,2.06687951223809,-0.0679514018576101,1.34477769864194,-0.107356297935104,2.23646181615819,0.57189619757221,9.4548678223528,STOOP_DOWN
0.53,0.3294525631138,0.32184215418696,-0.148111932079091,9.53689113294011,1.89962911220731,2.01594522197051,-0.26157118763575,0.405791195942483,0.0493392660747085,9.87487456681461,-0.764253108725545,1.87406872314264,-0.111186175088548,1.2871249576538,-0.121900058968369,2.052789092003,1.02605205057288,9.83158716440228,STOOP_DOWN
0.54,0.327364671776141,0.347932719953689,-0.153154077177925,9.96213400405479,2.26758544439738,1.92522174705102,-0.202299624365683,0.37648808126656,0.056832130665774,9.65306737503743,-0.880630593959327,1.96576882667614,-0.13220310023796,1.21692011598022,-0.120420438328123,1.92285401376041,1.24149345327091,9.85923551090698,STOOP_DOWN
0.55,0.294560763515038,0.362506174740601,-0.157084589404604,10.0701724327688,2.21273013355547,1.76808483450431,-0.114644175260939,0.342281088994567,0.0585713856810205,9.4817336577633,-1.21670940572414,2.04930136637963,-0.13220310023796,1.21692011598022,-0.120420438328123,1.92285401376041,1.24149345327091,9.85923551090698,STOOP_DOWN
0.56,0.151144159870883,0.391452753588761,-0.152649923834879,10.1703187255033,1.88780657287693,1.87629485725528,-0.0812280931566334,0.335917610422376,0.0565204716924262,9.60974601969996,-1.21156230767616,2.53030692242963,-0.153596388126422,1.17114155475635,-0.115499916373234,1.75687759953872,1.27303759960873,10.0105284369836,STOOP_DOWN
0.57,-0.0172901943888105,0.436491923769259,-0.120464059141493,10.3415482297624,1.61779892659943,1.95342045686328,-0.024487744736693,0.326933008906296,0.0614748286273096,9.62488326827373,-0.937712311188204,2.73181463392067,-0.156617633519747,1.13499470204088,-0.0915357620276361,1.76860907667342,1.14025740782693,10.0838569995321,STOOP_DOWN
0.58,-0.104469564923724,0.419798946915609,-0.0801778507875651,10.2465473139035,1.1660473726826,1.87786070282855,0.0869130493767051,0.236793001156825,0.0673160669199927,9.34816262303885,-0.473366777590643,1.97680992490042,-0.152752299235183,1.09454754828204,-0.075078246831807,1.67205740194106,0.926187602480622,10.0424945493526,STOOP
0.59,-0.118726520889203,0.389917762165311,-0.0472427179944697,10.0671657759562,0.516909061455398,1.43763621231572,0.145691057246667,0.139850102423034,0.0923614904226348,8.70899989347726,-0.0443063325888298,1.39440875235622,-0.140667309980679,1.0677749544479,-0.0558608969116642,1.62470470923159,0.664207135647971,10.0523670419416,STOOP
0.6,-0.053967075913856,0.371373006597523,-0.0260061736141776,9.72609969470816,-0.175909933571603,1.1131346915263,0.214117202052969,0.0679027947462713,0.0828541955137804,8.10740816265433,0.0894189157590508,1.04349450680937,-0.0944332640611207,1.0363871645418,-0.0317672798216185,1.52645969088012,0.321822304949245,9.98578619468335,STOOP
0.61,0.0362335650016794,0.331343489139449,-0.0196475851495883,9.25176216111027,-0.604695117246665,1.07724212626572,0.265560107735284,0.0529049874810681,0.0281926891577417,8.33410127760624,0.114626154853096,1.01282757134232,-0.0972260690332176,0.97496027739923,-0.0091462738468405,1.52312027320781,0.136267199622171,9.89733731103381,STOOP
0.62,0.135585353163964,0.263925880819633,-0.0103040791687142,8.81663401727541,-0.510484456785157,0.763689671530956,0.272721516902265,0.0841926686694293,-0.0071673760187444,9.13856907769804,0.545565468468167,1.46674245320743,-0.128088329789972,0.913296140864153,0.0016922828836242,1.45513379372114,0.163956767293743,10.1011308416331,STOOP
0.63,0.20281521433213,0.180630078943441,-0.015170223280345,8.59018449478025,-0.0024363890472073,0.412024791850388,0.235031565900022,0.15494099462883,-0.0214935507340228,10.0785985753129,1.13005486533421,2.06290683165163,-0.169933404390802,0.856811301712032,0.0087199359599292,1.41600156169591,0.388300472560041,10.309971040336,STOOP
0.64,0.252613292985821,0.139633460919603,-0.0237451638138406,8.60016558608907,0.823947192996243,0.193719295111541,0.173277023741204,0.207118913951876,-0.0263663356595393,10.6571008235787,1.74233039789859,2.50262162593106,-0.188421246838636,0.818248782238931,0.0062842041731287,1.40190786537541,0.643716182218296,10.3589755743415,STOOP
0.65,0.26113042680044,0.0838544679400631,-0.0474021561227418,8.71990679649466,1.4254795258593,0.167994851559834,0.121369018940341,0.213832680710238,-0.0179245949742382,10.8100303976415,2.39974458164884,2.99272420273596,-0.176372096283809,0.795814115309341,-0.0133070880320289,1.28573622242373,0.777734220265338,10.4444192062908,STOOP
0.66,0.209497402135782,0.0360980493367052,-0.0840724978038135,9.14530600233097,1.82804458351421,0.0573637390655776,0.0423003704971374,0.178312924481717,-0.0232130236189358,10.6666731103219,2.45207381559993,3.18580663757848,-0.127200212698266,0.770089792051055,-0.0440525665727409,1.20225008251845,0.936863519040205,10.5461240126727,STOOP
0.67,0.161287929836914,-0.018485023378847,-0.0998507537632018,9.50206263734691,2.04492868955844,0.285865605491786,-0.0522163058454935,0.149286448107381,-0.0071457406319355,10.2160983633086,1.9725492567553,3.26158936410141,-0.0936997414398776,0.746972046058299,-0.0794378146275675,1.05314739262999,0.971634698745509,10.4534733583641,STOOP
0.68,0.0231397524588623,-0.0529492292414629,-0.103449369156564,9.78114428858699,2.25352346687012,0.878225134758652,-0.140191652436172,0.158552204872405,-0.0150406897199261,9.85533680881927,1.09110805578743,3.19316070435491,-0.0463124292229731,0.744732888114597,-0.107850517609953,0.930883138536588,0.784219434888115,10.5256402234921,STOOP
0.69,-0.0832484239193084,-0.0309112375204756,-0.0795945458777167,10.3008806484554,2.18867330411471,1.34616738979192,-0.208460933031498,0.130285587324212,-0.0341890032549883,9.53967815185073,0.464211050947792,2.44063305804725,-0.0115168256373369,0.727799757940491,-0.125347513673243,0.924289632809912,0.454010335971761,10.6405755404157,STOOP
0.7,-0.168610001442944,-0.011552741178778,-0.0453286257380664,10.6021692733293,1.76395155538572,1.93021923404862,-0.242669763197459,0.075950864985502,-0.028336131677794,9.04723659677962,-0.0363450797409828,1.56975019329057,0.0093296906314737,0.701226620769795,-0.123809747193041,0.862469916745444,0.214273913358258,10.6178937592662,STOOP
0.71,-0.221064364565892,0.0084204992921633,-0.0129410987977152,11.0146247320425,1.3387637392276,2.23406328130626,-0.281386050600221,0.0145266302711543,-0.0138068298039932,8.70131619131438,-0.888932335091373,0.961520574239271,0.0153299166753531,0.666970679982951,-0.10602495858802,0.782655833539466,-0.0136388184100337,10.6189021668407,STOOP
0.72,-0.190711121655315,0.0143061574913472,0.0092784123745213,11.150598899343,0.713079787974894,2.27483020646777,-0.269960933040203,-0.0330688122274175,0.0169675908069921,8.60786300049214,-1.27275900715796,0.692234673363215,0.0218800904279177,0.634246428384288,-0.074326502306528,0.764355013213861,-0.211075583018531,10.5851417232233,STOOP
0.73,-0.0925460839315373,-0.0003207391922451,0.0235625700023458,10.854846750546,0.315863211970747,2.42161702581555,-0.158189530440388,-0.0667173084504091,0.0519074660260695,8.5856668454989,-1.35247214987324,0.409349589814666,0.0437702947516801,0.596622232709479,-0.0311254805542237,0.739113328911397,-0.350396127124008,10.4413165687851,STOOP
0.74,-0.0097372072958172,-0.0068719115778209,0.0313926362798224,10.510370105613,0.364387518154546,2.23063432844484,0.0004716594920697,-0.14494543284149,0.0766010215068758,8.5246302473984,-1.42496738883891,0.303433099864548,0.0470359012757253,0.551123128743019,0.0080031894271436,0.683207268564485,-0.228218051177372,10.3975238531641,STOOP
0.75,0.0769765189553047,-0.0299023818106007,0.0445541119717806,10.1422610781673,0.526969993878864,1.80936049107054,0.142741622380539,-0.213562767397555,0.0872935573078501,8.58689606250714,-1.15067103374777,0.576827633100523,0.0597954460896782,0.51774122247122,0.0523937984154686,0.621744963545004,-0.0487495820820324,10.2427645106822,STOOP
0.76,0.126941324543079,-0.0668884184456404,0.0508305715711065,9.70265653956491,0.66527960881483,1.66448638788075,0.257310139643494,-0.236544882156723,0.0835627059550477,9.11747081836407,-0.705622022246847,1.11040125598973,0.0513208667516098,0.475821087455656,0.0763209727186202,0.551721230845307,0.281978772219254,10.1824565540952,STOOP
0.77,0.164963873604755,-0.126664404082275,0.0666824674038262,9.2539841081606,0.945462441280841,1.2966084108862,0.301278028021029,-0.23187106316033,0.0773094130054707,9.8445953902656,-0.12860809175885,1.71822959475967,0.0184103510564852,0.438125525493157,0.098206453386455,0.468364319303134,0.634879472605961,10.0921365005523,STOOP
0.78,0.177558634754761,-0.179630098943777,0.0728639522189848,8.71440533269806,1.21222947598432,0.797116123610916,0.329666113769246,-0.219264112172639,0.0636614924730214,10.3452902904577,0.551437295552772,2.58854882213359,-0.0283445514255381,0.396460665948934,0.102546667651445,0.391173178858161,0.988491799123012,10.0252109064011,STOOP
0.79,0.121473957345405,-0.239016268600252,0.0731015541149797,8.17446974821895,1.19390005813712,0.415762214088783,0.326240449576001,-0.199822509465168,0.0448815485974566,10.6805804541085,1.06632304427273,3.19551060178731,-0.0545184757994566,0.370903112932127,0.0913599311830725,0.276628213816899,1.36898484301702,9.92831843998897,STOOP
0.8,0.0293234739956458,-0.253841084183448,0.0702496655045039,7.85148695335025,1.04095164799567,0.522795116962087,0.269334229563819,-0.159370828573993,0.0245563586809718,10.8408400051623,1.74842620777784,3.44576236839487,-0.0713675279295497,0.339147191289179,0.067635771343998,0.088394082769079,1.63884476228048,9.82919975604434,STOOP
0.81,-0.0554964703325078,-0.25158309985638,0.0714456252347741,7.96449813815515,0.923110556172767,0.612844436460812,0.218564304109077,-0.111819621077124,0.003110993376704,10.5668448237469,2.16954530789525,3.80074084119023,-0.0991433602275526,0.321112026207213,0.0313107616780248,-0.0438937082084313,1.81937345946152,9.74587399448249,STOOP
0.82,-0.100531165819759,-0.201258835405086,0.0674946793920733,8.36988094619854,0.520161419452163,0.764076356156272,0.160516263265939,-0.0810305759408923,-0.0308383769535255,10.1277444855244,2.15880350831479,3.85936769531742,-0.110356372507331,0.304317696946014,-0.0119597685505793,-0.216438012359989,1.8403573671844,9.71846051178544,STOOP
0.83,-0.110985395076331,-0.159316588951832,0.0624251778425313,8.90091403757933,0.111249495389374,1.39494816129005,0.0669499894749087,-0.0643941028516893,-0.047267235969208,9.66122896837105,1.90177470279772,3.48853671280252,-0.111310286858447,0.29261347738324,-0.0413975758813379,-0.264736820284416,1.65640292839347,9.72842757263683,STOOP
0.84,-0.104777674009277,-0.11534261105014,0.0580432510893473,9.61299719592543,-0.0868343920233018,1.8547619831418,-0.0385990746352902,-0.0568896091958875,-0.0432506908292595,9.25848587072219,1.45198706232522,2.94898853348063,-0.110094440664898,0.280331337469558,-0.0654379291983139,-0.224263466634476,1.32184332506521,9.74119000621742,STOOP
0.85,-0.0647428659885185,-0.0761611185022612,0.0600393222180479,10.185857365832,-0.244167817993518,2.27804830341399,-0.14064157950414,-0.0563452038239419,-0.0420630999636345,9.03890887689594,0.96722461392499,2.45254489709855,-0.103550602333881,0.269183111216661,-0.0625116062474306,-0.15872669857707,0.986297124955306,9.77854948962624,STOOP
0.86,-0.0374801894698264,-0.0512870153478381,0.0574199918810069,10.586165210828,-0.265025562220124,2.67154132325472,-0.223224868215056,-0.0325652759001822,-0.0389323703250909,9.11067845820825,0.482065091150662,2.1059505365271,-0.091908479109707,0.25652914146703,-0.0446725821999277,-0.0740643255359093,0.631575950952959,9.86907114417803,STOOP
0.87,0.0101359740026747,-0.0249091803277064,0.0600373323458578,10.8599746472059,-0.13095869961034,2.91861337809014,-0.27732302648607,-0.0088498571646361,-0.0258008267203008,9.13959292746025,0.0463523538149338,2.0189543494982,-0.0755324129149081,0.239391391597865,-0.0115865446940647,-0.0643504984313254,0.35806388426949,9.86968600151212,STOOP
0.88,0.0805070117891765,-0.0028924343212499,0.0563297036746553,10.9691912706834,0.106214016367165,3.05247210221042,-0.256211615584263,-0.0181071506228338,-0.0080447080080889,9.18256552554822,-0.414520498777596,1.95099717896927,-0.0641680272001556,0.218714311754088,0.0250106266957345,-0.0817592553840037,0.167556053141581,9.8545376630809,STOOP
0.89,0.113477169994424,0.0217129544464977,0.0589178897149464,10.6468647587742,0.270461412998306,2.91570987979042,-0.171686123076725,-0.0168134842434853,0.0132516336247528,9.2809930182929,-0.636165241094818,1.71601449999621,-0.0501819359706547,0.189704783009177,0.0677601120486744,-0.0786312118499335,0.0525953895297966,9.85019042657979,STOOP
0.9,0.136616926450211,0.0208931568685332,0.053714010383725,10.3216663493002,0.388063191912328,2.62882475115906,-0.0535651156725387,-0.0249862106409482,0.0259372698739805,9.04818514756807,-0.757160027852379,1.79367637256723,-0.040364280811752,0.166414563416241,0.103431396437935,-0.143048868961973,0.0511756635636189,9.79948092290759,STOOP
0.91,0.203401567493093,0.0377024622370035,0.0444681130272496,10.0260108661726,0.70805478471952,2.30138176847645,0.0509638763471578,-0.0338370094607441,0.0329695346601356,8.97673878103608,-0.881337203005187,1.84337171426546,-0.0242431769613497,0.137529941930173,0.12963043598009,-0.25829747149192,0.161250671460002,9.8518371122218,STOOP
0.92,0.263801436219252,0.015201214111593,0.0394042183914934,9.58702225669184,1.09511809069785,1.92946386041731,0.136205803239704,-0.0413608252625497,0.0237765441105187,9.05039636531102,-0.889734250800334,1.75309990155385,-0.0242431769613497,0.137529941930173,0.12963043598009,-0.25829747149192,0.161250671460002,9.8518371122218,STOOP
0.93,0.259871218190512,-0.0165867311794392,0.0246958743335099,9.1769370273753,1.48158050670145,1.51268261547958,0.211585864316409,-0.0384981504185727,0.0169977590480256,9.19404050098516,-0.8672520588812,1.67831313574602,-0.0222125907884782,0.114944993027375,0.149330922326411,-0.251216857591531,0.332463898259742,9.84436922213247,STOOP
0.94,0.225189168724678,-0.0234416844673539,0.0140174912125282,8.97565583520453,1.72257619181148,1.03276956394133,0.212834424922725,-0.0113908227356763,0.0094757071998569,9.51016570019744,-0.311744209540936,1.99969818414648,-0.0144673329052306,0.0934068039776102,0.148020170841414,-0.20514863449959,0.540085158222073,9.80591735076972,STOOP
0.95,0.163001803297793,-0.0150280801446818,0.0122214032479414,8.93380220453336,1.70285282557207,0.789373103405443,0.168711515724671,-0.048487503711327,0.0086214588910176,9.60225552136056,0.108980807249755,2.19707464229273,-0.0080126337190732,0.0740563049235935,0.137036670716671,-0.145575795922562,0.700181612084902,9.80150697298136,STOOP
0.96,0.0831548526773085,-0.0120968920930253,0.0131123489310997,8.92791781554326,1.595684545592,0.754000583239991,0.161028108426996,-0.0914455997026346,0.0035718188548263,9.85083052227154,0.462785697368862,2.02246623366131,-0.0124960824592703,0.0693413604596754,0.124020925175104,-0.103282592770212,0.790550505115216,9.8099452756773,STOOP
0.97,-0.0114045674739119,-0.0155243898848529,0.0142438887012734,9.02655387295503,1.1276598968545,0.860764083005092,0.139352367372007,-0.0828325744636842,0.0057024282768287,10.2402701299591,0.689199302882181,2.03516669378697,-0.0015797963103099,0.0691092584341449,0.105494810261213,-0.056275590836125,0.809799765900509,9.8565555030887,STOOP
0.98,-0.0563014707688159,-0.0262795689889701,0.0222636406362045,9.27026893664145,0.511665842539894,1.13227649075879,0.0887069827720235,-0.0639476611745197,0.0062530155909576,10.5161625722704,0.827985802948179,2.11208335236002,0.0117130980440221,0.0686574752617022,0.0800333846027546,0.0141415797931045,0.823956969236283,9.90457953351068,STOOP
0.99,-0.116695769566354,-0.0463774610618268,0.0406577871452965,9.64549960211568,-0.245097923489666,1.31774457206492,0.0212578631677731,-0.0393630748093604,0.0062496763384105,10.4486522226089,0.835655162711189,2.21809245999776,1.18973996876e-05,0.0732668800886079,0.0652729686693407,0.0535902221724724,0.829984543766834,10.0034650762081,STOOP
1.0,-0.140047518460671,-0.0470305362625354,0.0618171751514334,9.99130621190635,-0.648678477956698,1.56259240712498,-0.0137867130266808,-0.0364320546700613,0.0058797831139783,10.0873756295105,1.02558069695854,2.01716007137294,-0.0054184486433621,0.0840863943398385,0.0508758210178829,0.103843776837667,0.76916438658434,10.0403957450257,STOOP
1.01,-0.114947580276644,-0.0101757942181608,0.0782570667908298,10.352161627842,-0.610176420171873,1.90046864503918,-0.0356178277872417,-0.0525920063516044,0.0079037934847282,9.68128416575059,1.06580381718485,1.96331606767432,-0.0099005221570443,0.0842691490058551,0.031994487642294,0.148864055756036,0.783577720435523,10.0633249180356,STOOP
1.02,-0.054078497807828,0.0030909688921749,0.084256937553615,10.672872518037,-0.61488352082957,2.18421724414743,-0.0436022809730867,-0.049222630905923,0.0142616820379039,9.46938484535654,0.959270029868694,1.84049148744506,-8.00297254877e-05,0.0869404451659456,0.0242579764064034,0.0977468552070448,0.719692892959846,10.074580301395,STOOP
1.03,0.0104493275571553,0.0266743003051575,0.0829691213843647,10.7610710592536,-0.517837029680451,2.27599693749624,-0.0339746762854685,-0.0603753951766326,0.0073527660310328,9.40064470633463,0.725681366326928,1.73317108021116,0.0098574883494888,0.0833340068763283,0.0212296427200639,0.0222486005360458,0.671962189812867,10.1321486774794,STOOP
1.04,0.0836366648952815,0.0291030146011764,0.070562776249208,10.3360555030271,-0.218696109230299,2.18474916468205,-0.0150993230574578,-0.0271500941878378,0.0009082910343935,9.56915789672576,0.404117620128165,1.85178460822899,0.0246570625165849,0.0740556434727827,0.0198298451825173,-0.0275389764526863,0.60146879484255,10.0950833433393,STOOP
1.05,0.137171453150892,-0.007576014034547,0.0515004474382987,9.76970440988944,0.251074093386253,2.04766002086377,-0.000724467506971,0.0135543797215107,-0.0136471909805767,9.72533010047026,0.272504427657858,1.93874010590099,0.0300586092357618,0.0587763560416097,0.0305338320975913,-0.063634855620664,0.582824742149813,10.0735248988971,STOOP
1.06,0.186095018340802,-0.0215914203979238,0.0413297047213755,9.40652890726564,0.682860145921967,1.72135623971751,-0.0045954151133855,0.0354998264288933,-0.0299276567397084,9.86412422060032,0.203997298214372,2.11040964040961,0.0284296687905308,0.0361974421492037,0.0355842814946381,-0.154705192727623,0.620504305432661,9.99077857414572,STOOP
1.07,0.19289803198558,-0.0034218556317855,0.0220651768341698,9.16842993272102,0.962193367436114,1.54471406977539,-0.0262863685352715,0.0473590611823997,-0.0331002825060671,9.91461382301184,-0.0152943130985974,2.31410086289534,0.0180673479728813,0.0150248322443238,0.0533215157016146,-0.207016096903879,0.697723427592453,9.9011998997125,STOOP
1.08,0.212577339647092,0.0002087242987908,0.0007013528328461,9.17370714927594,1.40725728476804,1.47470520250338,-0.0379005924011686,0.0349887483766417,-0.0317091577052362,9.73897484341578,-0.132117456708546,2.41561060027079,0.0016766546310716,-0.0026885754989742,0.0560825007640677,-0.237450543239215,0.838683708430818,9.77509039289132,STOOP
1.09,0.214665842147564,0.0091973696310554,-0.0082356806230243,9.3077160523377,1.60660055559371,1.59038481244161,-0.0379005924011686,0.0349887483766417,-0.0317091577052362,9.73897484341578,-0.132117456708546,2.41561060027079,-0.0199661372617523,-0.0147489515569572,0.0599678155227831,-0.208403800531636,1.03400013220371,9.76392769206154,STOOP
1.1,0.169132516145226,0.0078866947302493,-0.0179361863709739,9.34769970302019,1.72337432157556,1.6129329121362,-0.0194625427799982,0.0112571757712099,-0.0322262182582654,9.53476252787274,-0.274925845323088,2.41917058862124,-0.0318208582526687,-0.0193151574304256,0.0502304114054379,-0.155473031969739,1.10452873887804,9.67701668887479,STOOP
1.11,0.0710297366886198,-0.000504649643158,-0.0198325964973379,9.37806322111897,1.53114301640677,1.60917684036309,0.0014717235639513,0.0052571045690264,-0.0364443131964902,9.50989509314963,-0.29935037480548,2.34790412768402,-0.0405805805666277,-0.0185875882232928,0.0425058953721516,-0.0926774793443211,1.13035495592555,9.64821892987154,STOOP
1.12,-0.0013060791052851,0.0129862009099643,-0.0102068546370639,9.37587526949623,1.18710938962899,1.4996618907458,0.0243871983313646,0.0146134630985186,-0.0433397848666427,9.5140353089981,-0.186353560684755,2.35549978373097,-0.0564231708722417,-0.0222148761765116,0.0315591363395742,-0.0963692704719612,1.09809568389146,9.62896949878634,STOOP
1.13,-0.0436732412128416,0.0143958487977823,0.0049024583283635,9.36164957000349,0.791743845288937,1.56363942329951,0.0402520638651549,-0.0017189467159802,-0.0421477204266548,9.43613154974982,0.086775494363508,2.31342638875421,-0.0715581333925046,-0.0203289191668952,0.0295597242781775,-0.0656023412255483,1.00096888372654,9.59732953037058,STOOP
1.14,-0.0821724084556135,0.0163372475135916,0.0211937121513797,9.35742534254203,0.377131000109689,1.66512428325351,0.0501726315388617,-0.0027454558478928,-0.0319094810918096,9.34406743781611,0.383246225162417,2.24954509628606,-0.0834995126501241,-0.0204937737893875,0.0234696763168639,-0.0488257831118867,0.865081472033938,9.62200483544337,STOOP
1.15,-0.0897194364131929,0.0178358396353619,0.0232976974710905,9.53094573386994,0.151638836188092,1.64663667523786,0.0555066958563025,0.0177408070330636,-0.0201820321974017,9.28500169203809,0.537564645879881,2.14617435696288,-0.075895043787308,-0.0268162142125384,0.0249528241847484,-0.0082855318047206,0.7226063919643,9.64803020908082,STOOP
1.16,-0.0599598164357342,0.0314560126032337,0.0194172723140244,9.76347151114545,-0.136336782978642,1.79146245992616,0.0462451216442666,0.0192201564708469,-0.0071616827682267,9.20600550394195,0.624225613373603,2.06763567265586,-0.0548301936977234,-0.0288879822930075,0.0347409029729126,0.0403028633148415,0.591467817677641,9.59756375374104,STOOP
1.17,-0.0074950743595764,0.0457390711341601,0.0203794760570718,9.95589117743196,-0.180381419311743,1.93226735248609,0.0180381229416723,0.015449259691778,-0.0095281840287221,9.25315178952839,0.460812758519698,2.04988633171755,-0.051617691173801,-0.0328422812364012,0.0389922271046547,0.105362646830727,0.440749675672348,9.60051664827624,STOOP
1.18,0.0596955667955244,0.0426507810710515,0.0040823426672532,10.038057173185,-1.551774106e-06,1.87025518341428,-0.0095445380604468,0.023229832299724,-0.0002577951555841,9.50470527941366,0.239315286266289,1.94310696874925,-0.0484634947772706,-0.0324057637912491,0.0469076934316019,0.1357803791643,0.358046309155669,9.64006174724815,STOOP
1.19,0.13185141392024,0.0548496819894175,-0.0148495273133677,10.1099136286642,0.415467487974586,1.85384433307681,0.0061913113074774,0.0426706749700207,0.0139000897163972,9.63092808744439,0.0076505234513378,1.8840339396341,-0.0283201312086055,-0.0234323833929029,0.0516107192577125,0.165003833068549,0.285098067075727,9.72752446465147,STOOP
1.2,0.188271634384708,0.0485486781352205,-0.0252460822926964,10.0553813406638,0.774836618258721,1.77923998838676,0.02215298491147,0.04906067014133,0.0229322820173251,9.82524072515101,-0.0660986395119712,1.87436141965582,-0.010104258714422,-0.0186060320910402,0.0568307994186669,0.206638572374266,0.260248216588499,9.80669866388632,STOOP
1.21,0.162855679183068,0.0229946756251946,-0.0421932336489322,9.9474184363244,1.05397764636395,1.72647719411572,0.0266608742370329,0.0628523352692863,0.0199469555316176,9.93071533860611,-0.0888172276780739,1.9840635947976,-0.0002592524683442,-0.0119538390578795,0.0623864584013285,0.254631978794854,0.255508461257775,9.85771072457856,STOOP
1.22,0.119530251726093,-0.0110190743110858,-0.0483500451053938,9.76615850682464,1.32560495092792,1.55875414394819,0.0386816482936846,0.0598025410130809,0.0232671241536593,9.97856122170373,-0.145339617874254,2.15190275231885,0.0104002323075327,-0.0071389946134905,0.0707835892855142,0.265121802272508,0.378011410870919,9.83569647887459,STOOP
1.23,0.0982220562281402,-0.0087600671291356,-0.0438008322339866,9.49504771679579,1.34791418699549,1.36462278656712,0.0556422069748058,0.0526156252666299,0.0215528618701868,9.75400914191035,-0.0269144671421982,2.12951521853844,0.0047809426300113,-0.0044702450695421,0.0722145585312203,0.268500867138836,0.481935285987617,9.84178609042783,STOOP
1.24,0.0940298851117133,2.37507448662e-05,-0.0410490357768392,9.28658198780012,1.25364742093546,1.3094036367568,0.0783391232514325,0.0272153826303366,0.0140361160941496,9.56541143574586,0.116045925018238,2.05089073903745,-0.0015520458068458,-0.0091994193796698,0.0730317764065616,0.225465517580485,0.593812204547561,9.82089242168818,STOOP
1.25,0.0573994191558051,0.0192100354248201,-0.0262939269678519,9.28869765328191,1.19951256211449,1.55262424124953,0.0961634663573542,0.0238577510101158,0.005798701174096,9.5153577497811,0.227373755991161,2.06871403204358,-0.0122999878088567,-0.0096442882734797,0.0682759456475697,0.206324652436442,0.698452601539432,9.80154305006186,STOOP
1.26,-0.0053158676972102,0.0191000749343034,-0.0141409625294721,9.36797522709277,1.00126170324494,1.61796181431739,0.0893115058824003,0.009723655798664,-0.0076774363089356,9.4278659870526,0.372331565124767,2.11878451815616,-0.0154856072289531,-0.0100927500525296,0.060342299868479,0.150548063004646,0.762667529440196,9.78897687343648,STOOP
1.27,-0.065340233131263,0.0397022804677721,-0.0045730671671136,9.59067775738636,0.735407128191872,1.72891785800608,0.0628226382595041,0.0058189978600053,-0.016873793548481,9.53324038876316,0.64871825880582,2.0432301128087,-0.0234594949898964,-0.0077525680280615,0.0483678596016882,0.0988335818249128,0.741854853799184,9.74219849595075,STOOP
1.28,-0.0957814090387732,0.0600668615858664,-0.0027684515636402,9.72323937107203,0.575609400242939,1.83447130731851,0.023711537565485,0.0350186610051736,-0.0101475938631206,9.47783398212304,0.855713279839945,2.14119528441134,-0.0234594834613237,-0.0072976915970018,0.0388054005250439,0.0767140714343202,0.741695396589371,9.71686412162743,STOOP
1.29,-0.082500136126145,0.0732969893420466,0.0007016400386428,9.75915061023314,0.415343116228959,1.90330556051911,-0.0025244525837585,0.0204196510553758,-0.0176608891585332,9.35514850026882,0.920635337835872,2.06927412684198,-0.0238416404433128,-0.0083446733648845,0.0307704163098595,0.0586393893548269,0.656999181254777,9.65720598727869,STOOP
1.3,-0.0187458043015891,0.0681850784718836,-0.0050743126496127,9.67858227590878,0.219532595828332,1.89089304730763,-0.0263519263665004,0.0105657723291248,-0.0096107267455962,9.44895631105536,0.868610092064304,2.1755308278079,-0.0202993220945058,-0.0044907934763312,0.0288272732686484,0.0794050995966599,0.553628141597326,9.70062577823228,STOOP
1.31,0.0278380480432363,0.0349598286127065,-0.0067597266031176,9.58119373213631,0.260170376866603,1.79602152268044,-0.0432127789639339,0.0482617885983775,-0.0064528724263644,9.59380253813563,0.796327626518881,2.19887152081105,-0.0230487595064064,-0.0082619722248111,0.0252710511078249,0.0969696198290061,0.521851550876084,9.70628126008516,STOOP
1.32,0.0589598973826818,0.0170950710638182,-0.0061857725259019,9.55641009156243,0.358808115766638,1.65784321169731,-0.0529426582147382,0.0677123011397329,0.0085599343214479,9.638001932387,0.465338914119448,2.20164757499681,-0.0262784956676158,-0.0047753796493477,0.0305677281223837,0.141722187502643,0.403016736141149,9.70304054594433,STOOP
1.33,0.0775353144643414,0.0100762317740858,-0.0090392466591035,9.61593895946008,0.549695230128775,1.66470494779142,-0.0333071466917459,0.0940974690473106,0.0144060802499179,9.7369509556619,0.240486763656723,2.29491998253233,-0.0151517283927257,-0.0043284587983985,0.0325558410797874,0.165175282485777,0.403037287024731,9.75263723119274,STOOP
1.34,0.0767008921980167,0.0142703986090065,-0.0141031758350289,9.70323574894474,0.669508561937625,1.66353073515004,-0.0093778023570982,0.0737251780023895,0.0082200022458581,9.62016974502084,0.0858764507323956,2.25888655632232,-0.0159044433532421,-0.010271828827644,0.03315225311313,0.138034625286439,0.326200733619443,9.86504908030688,STOOP
1.35,0.07883039053688,0.0294301000689095,-0.0131301406449317,9.85524074393586,0.559352189691908,1.71786935847599,-0.0093778023570982,0.0737251780023895,0.0082200022458581,9.62016974502084,0.0858764507323956,2.25888655632232,-0.0198396502767888,-0.0171077958696199,0.0353816949390211,0.160205308429883,0.38514949604228,9.80485490770868,STOOP
1.36,0.0670940059415634,0.0683848588761563,-0.0258833107374836,9.88325245874238,0.591515684955628,1.71183470635003,0.043170958428589,0.060730072336725,-0.0014190541075858,9.47494094639083,-0.0917017976785741,2.20731602257767,-0.0190295309217616,-0.0204185781704561,0.0369901131319771,0.159152066867378,0.454811956064343,9.76725640175343,STOOP
1.37,0.0843402494121888,0.0779482655522501,-0.0357841609236332,9.78850083809649,0.827463299197159,1.70318642384025,0.0830492512139278,0.0518326162246228,0.0017632082569576,9.40387304724209,-0.119655367003219,2.19771550758511,-0.0158711144957237,-0.0180748985638541,0.0365714804060952,0.180551841792703,0.535275112383203,9.82724726077249,STOOP
1.38,0.0814369253954358,0.0742132164765139,-0.0353638648553944,9.69401450582406,1.13399298151968,1.66185876533577,0.0958766918281814,0.0322581445963584,-0.0023825152300086,9.39710426652806,-0.0235231998788628,2.08449688598466,-0.0143089560163794,-0.015446625674119,0.0375817042306933,0.165666091538667,0.563424250682454,9.82181004525774,STOOP
1.39,0.0642658882903136,0.059583590756875,-0.0148887217873839,9.60727973409013,1.22133357795209,1.66320758399201,0.0883667876485156,0.0244704058427047,0.0077806769355691,9.53241270901331,0.185361442395506,2.0026986129127,0.0004081111009248,-0.0140681210669803,0.0351904717123946,0.208298661591605,0.513521355932516,9.7566421268484,STOOP
1.4,0.0271917415768083,0.0473775230549868,-0.0088885428313685,9.58589542053492,1.11646672312875,1.65744519184433,0.0863030584578106,0.0435837200124325,0.0210259023975022,9.50813102098704,0.378877375639532,2.09541688972272,0.0083427341297717,-0.0130656251770906,0.0400309175444179,0.219775832396041,0.461047659724869,9.76612362142869,STOOP
1.41,-0.0072948454702813,0.0522767854218752,-0.0087600398917633,9.69215063182408,0.894097501227171,1.56752100407838,0.0863030584578106,0.0435837200124325,0.0210259023975022,9.50813102098704,0.378877375639532,2.09541688972272,0.007929559276851,-0.0131243572995432,0.0427668113939686,0.224681055747936,0.381528604110274,9.75561285859074,STOOP
1.42,0.0092443986133448,0.0552964028132923,-0.0116460329491836,9.65859907781562,0.871916629320447,1.76075048171157,0.0671992653200626,0.0504528837830819,0.0227811156422974,9.52516795205662,0.427288122363036,2.19861939881948,0.0099255513710383,-0.0167759774665202,0.0456853409724032,0.263301874832383,0.421885312834442,9.74885873634074,STOOP
1.43,0.0424877418778551,0.0566737060913961,-0.0193724234068253,9.62844867960581,0.805424737044909,1.83805224231513,0.0540532644538849,0.0604016870409066,0.0242258758625529,9.62957228703183,0.479785798662153,2.36286287945618,0.0083298451459589,-0.0179595800267724,0.0458837690039309,0.218525995559877,0.43162406770088,9.72189687690232,STOOP
1.44,0.0537188097850929,0.0660459394126653,-0.0197496015636038,9.61271942921763,0.730145915294175,1.98682708875665,0.0398890074480282,0.0791370481905163,0.0228205440153315,9.67413404254054,0.627440476852848,2.41988222453447,0.00554198974231,-0.0188053508683254,0.0447693287856308,0.186948838004326,0.495974472080095,9.73489612997073,STOOP
1.45,0.0606885158063059,0.0594211203826994,-0.030847147447045,9.71673487535255,0.805079590709345,1.85476308819148,0.0459219331044159,0.08662949738713,0.0215951967801375,9.78421506490464,0.731973837789243,2.41543456600176,0.0019337026231134,-0.0148816962219808,0.0432665698538416,0.148710137661595,0.532655400492981,9.7279513773465,STOOP
1.46,0.0723720810401491,0.0739561934675813,-0.022239676544852,9.88680817949887,0.751052877429474,1.7760404263026,0.0317838648696682,0.102011605609453,0.0255511282937154,9.84238083603838,0.818479946803847,2.37006024044233,-6.2265437967e-05,-0.0127001716760702,0.0391164572428534,0.133407338046232,0.566736118269975,9.74648007122972,STOOP
1.47,0.0637549559477709,0.0961954122118931,-0.0148916900563414,9.92714083733061,0.651027832408124,1.72816624863109,0.0059518224486088,0.117493305075811,0.0214965685791306,9.79430728106331,0.852007056490663,2.36525443904265,0.0058590252991135,-0.0066077630396927,0.0422456195867053,0.157355611333332,0.573187535550947,9.81995547046708,STOOP
1.48,0.0489469744951375,0.0985230150404639,-0.0220866283025401,9.90585729096876,0.673421299765319,1.45095327381474,-0.0251779236105922,0.117222974085235,0.0193164428386495,9.68787596047401,0.77792470310479,2.36454421799603,0.0074135201437665,0.0023525044528782,0.0386073988436527,0.157796369533743,0.573775451273347,9.81991406112487,STOOP
1.49,0.053761104166308,0.0922601848034095,-0.0224580467226066,9.78013450623033,0.716715838594791,1.39830922924307,-0.032537934874974,0.131812309161263,0.0227072579527697,9.71481701487388,0.708804292515419,2.36837523185059,0.0149572872815906,0.0052386260415136,0.037866514259955,0.166974152021763,0.530565584755764,9.8774706743013,STOOP
1.5,0.0459462368780117,0.0871425410034164,-0.0155331884422147,9.62008223510152,0.645039961781382,1.44550138462707,-0.0458359672016488,0.153570888403636,0.0268376707272198,9.73300989317804,0.60534506282331,2.39820101138915,0.0221031965068889,0.0066097536902633,0.0386431083524405,0.169496876025993,0.456397725640241,9.8910202966022,STOOP
1.51,0.0510481232721151,0.0890997106886147,-0.0128645788593395,9.67210376420588,0.728678176656512,1.42859141559012,-0.0706282650911648,0.163833164261064,0.0367869079780284,9.75383485290356,0.591693032067929,2.36019446530765,0.0252351573592318,0.0133204051431655,0.0418823152070793,0.0944206570732935,0.379788380683117,9.90441085834097,STOOP
1.52,0.0598016573976563,0.091036948359351,-0.0181628262836241,9.7236551403288,0.773393712516699,1.47373107010926,-0.0684096407507144,0.168808955464264,0.0523281968373587,9.57323819399327,0.412433739632133,2.27007414828528,0.0244165374368495,0.0117447378704652,0.0461308159979162,0.0796198529287701,0.336064604784963,9.91249675785671,STOOP
1.53,0.0618450113998903,0.0830256280269625,-0.022743144100107,9.80394892421327,0.816989109857702,1.47920138475141,-0.0724691761926851,0.147292536205354,0.0704212905172048,9.46674708227781,0.185807675928733,2.16445226486185,0.0283920410758254,0.009305456498753,0.0460980329583302,0.0387565175532979,0.375169044184467,9.90547262461679,STOOP
1.54,0.0382788861155475,0.0834015103292178,-0.0246990194934227,9.89640638490082,0.672851849915417,1.68356453910822,-0.0756481641604667,0.145712350943233,0.0838208588390284,9.38926938326704,-0.218901998289225,2.066910825834,0.0398582511222025,0.0106979532742518,0.0560669833100663,9.96103661696e-05,0.352149230988619,9.98418599436506,STOOP
1.55,0.0197112647900548,0.0579183601313116,-0.0291801877260072,9.77590953953688,0.868732503611203,1.8973441135415,-0.0676190996796877,0.112712561165602,0.0972288483159146,9.33271173355892,-0.465820354901417,1.84988002859263,0.0513830563617926,0.0096663386648045,0.0540696775261651,-0.0720808529181,0.398687385055181,10.0998297433698,STOOP
1.56,0.0357546091865312,0.0281829250191065,-0.0244325021503521,9.76031751178841,0.841992038887091,1.89196367626473,-0.0436999924864365,0.106611219846771,0.10417666526664,9.46652940794467,-0.491942974033346,2.03659050963931,0.0573196718586476,0.0113492456818995,0.0535184281914185,-0.140713799360849,0.352952739762072,10.1330942785428,STOOP
1.57,0.0415512383530643,-0.001831342005488,-0.0218501699675809,9.70641810192985,0.732623618121458,1.88901050430204,-0.0029139505377923,0.134743524856832,0.109392876391911,9.62767730031564,-0.290374683486501,2.43259196358028,0.0620480383217245,0.0084938198949164,0.0575215770464396,-0.193520854839815,0.291172311526463,10.2440177180248,STOOP
1.58,0.0680096895856144,-0.0415888614174999,-0.0153743460532915,9.56564610761325,0.832502756669518,1.47519420236035,0.0339911009026225,0.169479675388762,0.110757495546976,9.75554277967428,-0.0764570643041892,2.8375455065984,0.0862640704161013,0.0075168781474097,0.0560534285947619,-0.23839794708166,0.236557641373543,10.2547716315279,STOOP
1.59,0.0811858478840155,-0.0478487805358893,-0.0141415912316477,9.52975309393978,1.03156382295429,1.34353025885975,0.0596965118827005,0.147081694500517,0.109127499156274,9.7397232320627,0.288223443570384,2.82827107609134,0.118798910874587,-0.0031940588407365,0.0576548508587056,-0.377007194968237,0.225370609461156,10.3317458337728,STOOP
1.6,0.0225350677489898,-0.0292638841130012,-0.0194751906744197,9.58169549106306,1.05230890358804,1.6490637417855,0.0831173162713795,0.109578392808799,0.108095598160794,9.88240342274524,0.538389753640757,2.78633242933664,0.140211362983393,-0.0264819161125012,0.057068201255967,-0.469998351158538,0.288447710999292,10.4456483328767,STOOP
1.61,0.0012646399171343,-0.0164105355704419,-0.0271829699522046,9.60671494754771,1.29232699075929,1.80545605396888,0.0679211841171094,0.110025780994185,0.0968813248179429,9.92160083575805,0.791859296168292,2.78204547445102,0.159976472993134,-0.0495189555478056,0.0578888290038782,-0.562104747786371,0.412018992911616,10.4493082898972,STOOP
1.62,0.0011050574386404,0.0251166887136108,-0.0401196102310243,9.7442698627754,1.2469618842746,1.93969541347177,0.0410967709080018,0.0840534998233163,0.0752674959318635,9.8058568917942,0.940616314487326,2.64355948070855,0.170593327623329,-0.0809922421609693,0.0560300083800891,-0.681242423237893,0.512084518344157,10.4076232365818,STOOP
1.63,-0.0256212917705373,0.054988385864987,-0.0575277705908931,9.72129179413841,0.988905874059208,2.18239310984572,0.0234997054570729,0.0766077470797575,0.0516939058753104,9.80402914528261,0.91733782361178,2.57603552303654,0.172398876084389,-0.107691491610498,0.0596825384588635,-0.751002771501175,0.612804452293984,10.4408527054303,STOOP
1.64,-0.0540967732259906,0.0503161420628109,-0.05619885141927,9.70925266980057,0.870325916092111,2.21618170688745,0.0200365136146443,0.0790489093709379,0.0221485420171573,9.67201810211469,0.799294101098363,2.39702968311123,0.174176697945727,-0.138817601149248,0.0596942217129986,-0.756894014811184,0.750768897383205,10.4922335453419,STOOP
1.65,-0.069761555425355,0.0487324399701206,-0.0497566667468174,9.7082174755446,0.789840398999793,2.04364273744552,0.0222729331944036,0.0399022107516153,-0.0040464700924192,9.55683253146308,0.900893076291362,2.02929501102003,0.162848794677419,-0.177369862497892,0.0559047023760665,-0.718749583859889,0.833125371832459,10.4548894130124,STOOP
1.66,-0.0819916001754119,0.0570561394223409,-0.0382279493325477,9.6252847385554,0.689952019846105,1.99374569941398,0.0166527676447391,0.043118869669625,-0.0124079903170788,9.48201476898863,0.785272395532629,1.61665045389617,0.152214824148439,-0.214894026562449,0.0573576311587322,-0.653232168873793,0.89792253933638,10.3710212432844,STOOP
1.67,-0.0895381696897877,0.0710459527001661,-0.018646222622895,9.68127526262277,0.617860382478445,1.95488976516357,-0.0136830603465263,0.0750153845057698,-0.0003059720438148,9.29610064394455,0.486980271392226,1.6543389164812,0.144972400018833,-0.271626038452101,0.057679658949006,-0.596977147811831,0.948631015933523,10.4638529091669,STOOP
1.68,-0.0444197102289128,0.0959423545039051,-0.0054199318277328,9.6363429504104,0.527918869231991,1.93514488217171,-0.0442559540652886,0.0818842772184711,0.0118067396647415,9.06601963197338,0.0933063567310063,1.64462988373744,0.110585277659002,-0.342311465416912,0.0666535545190467,-0.601578075596011,0.928153968879454,10.4962508556574,STOOP
1.69,0.0062074820097812,0.0985434846748534,0.006400590341851,9.35315670301063,0.408295336455337,1.74123068002616,-0.0682090808607715,0.0638245726888183,0.027938877275046,9.09271713252761,-0.216177945205226,1.62912717257456,0.0569782811825163,-0.41589482976781,0.0677817727283919,-0.591752310864005,0.916565062308849,10.4771705607885,STOOP
1.7,0.0303157029697503,0.0914778620141062,0.0089943419710011,9.28394073791926,0.462162195212748,1.30226180792008,-0.0336285329200443,0.0558364177681086,0.0232844982237141,9.25746087456899,-0.248008736242409,1.80797526636384,0.0284301430733912,-0.473591037131256,0.0828424104066033,-0.501570739095731,0.959378893939815,10.3466984363235,STOOP
1.71,0.0388400855792606,0.0924680048535026,0.0071430897290687,9.32425301775479,0.569482467549035,1.03261646044923,0.0194821006773424,0.0210627258293981,0.0119270312533452,9.4519699862967,0.0066147781151225,1.94911107578773,0.0237239313351208,-0.521529254966064,0.0853956739718663,-0.376980103839061,0.965545010816623,10.4714103254365,STOOP
1.72,0.0009688154779437,0.0651535942707176,-0.0047940397502959,9.28062435081835,0.935306080757451,1.14491196984832,0.0539755747923142,-0.0052489751728117,-0.0034620134308459,9.39771387745602,0.0271588596505846,2.03229737104302,0.0146480048434569,-0.576599587566554,0.0900398918519958,-0.264867024218115,0.976812146696469,10.4700755881908,STOOP
1.73,-0.0307651530135599,0.0176608588563805,-0.0031778039055336,9.12962948834111,1.28678903438685,1.02209067239768,0.0608003777475756,-0.0362658683901135,-0.0173980156790874,9.18283692460645,-0.0551530002389691,2.17735587664922,0.0102583804305922,-0.631476655304533,0.0885335832246645,-0.174657306783152,0.965469111492629,10.3237014790109,STOOP
1.74,-0.0556752946465051,-0.0321864388077782,0.0019635610542806,8.92045022697065,1.37832370693142,0.923213590905649,0.0556546924251463,-0.0433139765788062,-0.0174012417405852,9.01933328011826,-0.173542139906463,2.13920040349929,0.0128570500236206,-0.671581904920539,0.0888318500267668,-0.18054321605448,0.804002081521862,10.3100064525206,STOOP
1.75,-0.12231458430646,-0.032089215574177,0.0109659472749593,8.73725343651636,1.34140899227154,1.06041198270435,0.0754424173100617,-0.0610956054372831,-0.0083183291271103,8.89918873600502,-0.476394399902039,2.23173660029388,0.014261034920352,-0.728943855797798,0.0876460295260023,-0.213648901340032,0.707437202517614,10.3102981494934,STOOP
1.76,-0.194588422618768,-0.0261996164904294,0.013178724054848,8.82038660253444,1.26043716872643,1.36809642854985,0.0627162172834637,-0.0552873583325431,0.0026486489636081,8.93454719733768,-0.674157493823955,2.45752368331795,0.030580975458162,-0.796987355618858,0.0853850189234161,-0.220848214939494,0.675720794762623,10.272928027512,STOOP
1.77,-0.230635637232036,-0.0453403728189311,0.0173153154242162,8.98960993495774,1.09414611009977,1.68149794509167,0.0554375338275186,-0.0650528963605641,0.012620204213106,8.97408339813162,-0.596401797501992,2.62452034452448,0.0418898279207406,-0.864673798706882,0.0842900886357184,-0.169518143541312,0.649379473513822,10.2074844749861,STOOP
1.78,-0.223380789150373,-0.0523938989356717,0.0166363027605742,9.19194093946233,0.730393665791074,1.9936444614556,0.0755729865851262,-0.0719220617751493,0.0287702461191218,9.09538274293641,-0.43928537396213,2.63604925857418,0.051015901456309,-0.920243264003002,0.0872557311002168,-0.0657021141174347,0.695124555063937,10.1742315618073,STOOP
1.79,-0.198418765047325,-0.0426512302956878,0.0105122877607707,9.60852797660087,0.441358253465325,2.49077779623524,0.110118638608416,-0.0752255581278521,0.0397416838379716,9.22752678489661,-0.324331745773615,2.81579395415205,0.0526393418508518,-0.990753567702866,0.0928307615258664,0.0313016702056407,0.780906446980045,10.1827921416598,STOOP
1.8,-0.155795593141256,-0.0206376388090375,0.0209766546777059,10.1118981284176,0.238514411293135,2.95830721803981,0.124685734188703,-0.0754602449025873,0.0421166810651174,9.44627089002125,-0.113068395190967,3.18582921437036,0.0568266748128234,-1.05220078571656,0.106198517390981,0.16302549073036,0.869434472637437,10.2372635360269,STOOP
1.81,-0.0952738007619271,-0.0075381437272717,0.037832156919836,10.4300545454661,0.119538911494975,3.25672500179444,0.135042571952785,-0.0799851408729773,0.0335128481936589,9.68308080553406,0.111341846650054,3.28154318372201,0.0661488399028795,-1.1128091273866,0.118153642221648,0.304566907363461,0.899413586014018,10.151378180024,STOOP
1.82,-0.054439009081923,-0.0305356591644318,0.0685173302394358,10.3204395081502,-0.0800602372100498,3.14843565588981,0.155239800741962,-0.0822645984412551,0.0133131074631921,9.70009063619623,0.311908686841174,3.23244557544253,0.0718214978587535,-1.1786900922395,0.135483597943173,0.45503559417795,0.845926385610064,10.1551673019777,STOOP
1.83,-0.0365741478682629,-0.0429823897217731,0.0933683041929896,9.91159491867974,-0.141323025782299,2.87315449937974,0.174550625458459,-0.0653781336465835,-0.0093939316748174,9.62289154897813,0.385180110739435,3.26400678834805,0.0662682096357268,-1.2492690417804,0.149615143389431,0.650182205478893,0.763031142373429,10.0824533493087,STOOP
1.84,-0.0372910216249449,-0.020200511467295,0.113643137632649,9.43200173684801,0.161936544675988,2.7482312050264,0.184889683102866,-0.0803933492919238,-0.0350126837110867,9.27014022541395,0.47431944399401,3.0633301386043,0.0679585677624328,-1.32010552231572,0.164514461578798,0.738029937280252,0.692102711365948,9.81776044547939,STOOP
1.85,-0.0344351116224798,0.0077393437334056,0.115347853082435,9.12417641116501,0.459513528783018,2.69257794156947,0.175259875770768,-0.084216469591463,-0.0423135903852661,9.19054617176201,0.625015633803607,2.90023898708763,0.0384273309598922,-1.40827506879084,0.166134795800869,0.836896628632047,0.647032669316534,9.56997466218469,STOOP
1.86,-0.0075278074008456,0.0387542362305764,0.0984450566176947,9.13245110516666,0.79774313139507,2.65973812277998,0.167607654089358,-0.0699743962351468,-0.0457370107518835,9.12542165741944,0.585269112558623,2.82538156214715,0.0028947963946459,-1.51048848658063,0.172125803503476,1.0159487135054,0.622990137143799,9.50469721127617,STOOP_UP
1.87,0.0411882072317787,0.0638698411765554,0.0718474127247294,9.28119578073507,0.993470660861186,2.79881297304684,0.133186733794521,-0.0831099088019556,-0.0395465888756291,9.00624746804805,0.39761366624173,2.65357299761412,0.0099102397275419,-1.59835806067289,0.163899853227039,1.16226056165428,0.573075559673468,9.59963424437258,STOOP_UP
1.88,0.0493889177369185,0.0524907688639743,0.0545511989397584,9.29472677627377,0.98822651704833,2.78415834421514,0.0646804577580903,-0.103103404708363,-0.019123384731325,9.0272017698115,0.264334262502974,2.51282635912158,0.0318731262494095,-1.64701402292962,0.154572430680207,1.42105549932391,0.601846740516064,9.50192836509144,STOOP_UP
1.89,0.0734371056084969,0.0282788800351072,0.0397386475395656,9.34498945776989,0.958177669727038,2.43066686001784,0.0016476906791796,-0.0772092677945487,0.0125890252602272,9.20389359996222,-0.0609631041945603,2.51502707732952,0.0395563786618392,-1.71580905607571,0.153904422284062,1.75924383162274,0.64965757543958,9.35113531271406,STOOP_UP
1.9,0.0818472079421766,0.0194447368863839,0.0269603112200997,9.41715297849572,0.831983572769425,2.21653441109453,0.020488653749309,-0.0624430767088085,0.0427978704607769,9.41939852264637,-0.456303427078765,2.80673810332688,0.046494390309895,-1.78298335339042,0.146556655355172,2.05819262719692,0.78914727314744,9.3855881669458,STOOP_UP
1.91,0.0657920237415242,-0.00681171209889,0.022003363728058,9.40737869518425,0.899594609505388,2.32843675602497,0.0461013079971952,-0.0775397693058064,0.0637183594213468,9.8460775361521,-0.598584264033043,3.32504389157638,0.0426731634331848,-1.82992288841744,0.141180329634919,2.36194233588001,0.812162319384481,9.46189816694199,STOOP_UP
1.92,0.0768122128283849,-0.0328318185930698,0.0442577011846055,9.57594913572505,1.09806062009602,2.56476104951503,0.0436885730468849,-0.102783832044738,0.06406832308083,10.1025128100873,-0.367415574515711,3.38757647696379,0.0505932432423916,-1.8684604660889,0.140643044272127,2.62442050075194,0.858482720809146,9.38246059208586,STOOP_UP
1.93,0.0928197311947626,-0.0537406047333916,0.0850346963502486,9.76465562161981,1.23922305234996,2.75352758875542,-0.0013804927135187,-0.159683563113824,0.0551735796004888,9.92027640724398,0.0644501391967969,3.02481566284661,0.0327195563757604,-1.91425428473106,0.135230398910137,2.91496109752638,0.838424210028867,9.27551069546978,STOOP_UP
1.94,0.0618721865025381,-0.0434456070367769,0.109768394134613,9.81055483203792,1.34220552192971,2.89715073170971,-0.070483712902345,-0.196439676228115,0.0321103346965741,9.6334748791054,0.263811778865232,2.91134902784116,0.0207491276901918,-1.95327391428955,0.125063238304753,3.13792053910998,0.834979015419119,9.07298695573857,STOOP_UP
1.95,0.0141518325740097,-0.0386816869090981,0.132760692696512,9.61809508475652,1.35563330442442,2.80788788995172,-0.12291705128685,-0.211212080422615,-0.0023630998719342,9.37683839405907,0.22779866331992,2.63402296661156,0.0256107975288488,-1.98290539162827,0.118601940665012,3.35623238135387,0.808729596464581,8.79035983052208,STOOP_UP
1.96,-0.0162877446655595,-0.0479806580823206,0.153075314748226,9.34333594137994,1.18306511714269,2.48342811647481,-0.0861948010771835,-0.246986859681018,-0.0263098630041333,8.9423809693784,0.0019020773257867,2.20134213681342,0.0258291297214081,-2.00683679924759,0.11687286497993,3.56432504926271,0.840287236538281,8.5166515145245,STOOP_UP
1.97,-0.0306475860094634,-0.0795597919605334,0.150198653511387,9.22565665026417,1.00371648476009,2.24361639858451,-0.0570860886711867,-0.305388879602061,-0.0373814560937212,8.82532674664694,-0.338744662404754,2.13143464995573,0.0283067278052823,-2.02758491702571,0.0990495087133748,3.82799542452064,0.866539088391106,8.18721064973441,STOOP_UP
1.98,-0.0090093690307827,-0.0978683767436723,0.144584322217595,9.17355257135723,1.0724284545461,2.19107069591313,-0.0837102827324871,-0.329194384544158,-0.0309023485729023,8.90132432322161,-0.383272337130815,2.06523291930093,0.0021770546045241,-2.0623199627089,0.0987878730675843,4.05052761524827,0.991723565852955,8.13706078339814,STOOP_UP
1.99,0.02591397372768,-0.116923814281197,0.138760302977387,8.91436650025496,1.34236994219464,2.33893202436194,-0.113045364762519,-0.347239601590121,-0.0151331871201968,8.89762410134585,-0.301795304445717,2.21361007028972,-0.0104322216039783,-2.09841710376673,0.0969179749961896,4.32854565291611,0.989236854107547,7.89438920731996,STOOP_UP
2.0,0.0952316288776912,-0.192569216505659,0.13254659724609,8.61682589231526,1.26540361497469,2.25685655654515,-0.150076115231873,-0.370568819667072,0.0010308612161833,8.84301913455806,-0.213738224402254,2.7660599406193,-0.0207424466638814,-2.14168928395966,0.095999006131238,4.59743249714995,0.945463536972836,7.5978512087791,STOOP_UP
2.01,0.13294392533664,-0.247515699727051,0.131966828018987,8.65115555997965,1.21511551995973,2.25867150432142,-0.214760046156924,-0.403524389224941,0.0057084752691908,8.98901082280534,-0.118030891508535,3.0355086353046,-0.0263020802919672,-2.17096653140989,0.0964799092899997,4.88425715437185,0.910199058723453,7.41567382449787,STOOP_UP
2.02,0.139746383076153,-0.295167393424035,0.140373998315158,8.94887342566969,0.923953343985619,2.33738490226038,-0.254208769283209,-0.406267763318148,0.0041341888123613,9.49340903883612,0.223631271899458,3.17823665611777,-0.0290023443330787,-2.18870894837796,0.0949445222269257,5.25486971140205,0.912898688804662,7.39360587713311,STOOP_UP
2.03,0.13572809833325,-0.318252576515954,0.140406094329279,9.63840593440569,0.955072711100746,2.28521003028435,-0.273878942077395,-0.349913611301172,-0.0096518027977138,10.3664751972538,0.275567240444503,3.46296530057684,-0.0342734862740788,-2.19777951873429,0.0914928480967328,5.57436432619762,0.983599950245829,7.37154779546296,STOOP_UP
2.04,0.136560755161011,-0.290511888398912,0.141179871666501,10.7097770857816,1.16215789300811,2.70299019533178,-0.259055299170982,-0.325554038505904,-0.0221475004178937,11.0559530972077,0.214347397091095,3.79827687597801,-0.0651918940048746,-2.18908271557968,0.0879035072356337,5.94875459188289,1.04878746211893,7.51049286865154,STOOP_UP
2.05,0.10108678338086,-0.246523381861799,0.140831381716812,11.2798134204171,1.13261514543686,3.28325050148011,-0.225916423076663,-0.349602498446529,-0.0429468901408883,11.1167508702335,0.395802968045809,3.91280237099821,-0.056315309933685,-2.18870799098692,0.0885985900327879,6.30334154187488,1.05395787545946,7.23139047070127,STOOP_UP
2.06,0.06037196092359,-0.276505576730056,0.134359979646353,10.6602181066175,1.02284116395073,3.32194766906884,-0.227307999271837,-0.426781863051659,-0.0668156930443334,9.96931948074277,0.57508565884981,3.23254810810098,-0.0288150254215037,-2.19816463172113,0.0856674174004666,6.56109538890902,0.99712282357143,6.71565989961368,STOOP_UP
2.07,0.0583606966901676,-0.359164901140637,0.125177136100124,9.63900996035986,0.792795676106829,2.93301621054712,-0.290937858842102,-0.532302140836097,-0.0845924906206067,8.75463979329507,0.445754539425125,2.29766385789947,-0.0134098390366838,-2.21149497526673,0.0771329914812362,6.67980779790488,0.956210911805715,6.38740215996502,STOOP_UP
2.08,0.0468284684993983,-0.386324849146649,0.126619708722332,8.82385841361839,0.515930580028896,2.21716832524109,-0.400117960138681,-0.547580076417975,-0.0880350625611929,8.50274818975197,0.23024595556444,2.04110711538837,-0.0263147885744382,-2.23299313688824,0.072153484045038,6.78368130903062,0.865340153884589,6.1320426641458,STOOP_UP
2.09,0.0745886500627171,-0.408887692897224,0.147925303206199,8.62454948195739,0.303165795660938,1.54490720410577,-0.466535524944288,-0.527681255086907,-0.0756446134744165,8.64186875359155,-0.0991185251105369,1.87120675809158,-0.0289694759533491,-2.25855940546328,0.0647466417478839,6.90821831413204,0.798413196195151,6.09446924852509,STOOP_UP
2.1,0.170229408942238,-0.428955102943379,0.17734391406473,8.89122401869181,0.413043836686384,1.38206844122124,-0.500049265570659,-0.536836635454156,-0.0735101847458932,9.1444303975382,-0.363412948074208,1.92479843087374,-0.0278557157840292,-2.28022343750222,0.0573433589756282,7.05650716346596,0.782611383615706,5.77326869701997,STOOP_UP
2.11,0.254889057936783,-0.448391100021627,0.181528689386628,9.34811238820151,0.5719148298365,1.72463085636423,-0.521560297895762,-0.548915091410913,-0.0682929397315702,9.60489700995148,-0.223877589180359,2.01186240310414,-0.0515002525722827,-2.28537432168293,0.0594765417457728,7.24695570985375,0.790449827295392,5.46327379449065,STOOP_UP
2.12,0.300115513548686,-0.488426657356111,0.162439323248381,9.43056059162581,0.639110766264209,1.89976847285015,-0.4779219610813,-0.579406585104255,-0.0508415594541793,9.60874071921434,-0.0775531368527823,2.14703117896402,-0.0502989625514857,-2.29567682461387,0.0540206518108082,7.36500232773248,0.81158409716325,5.22882093802163,STOOP_UP
2.13,0.377490368235523,-0.53247324269847,0.147480967529778,9.26495461629038,0.695482702846306,1.81557644739096,-0.413708717543626,-0.636782532054402,-0.0519774039552121,9.3727381786997,0.0120157027185969,2.30547232603162,-0.0559740373802701,-2.30119516841238,0.0550927481116371,7.45507675517497,0.818164210812628,5.01405798823578,STOOP_UP
2.14,0.373035615086578,-0.576475296323353,0.147796756486936,9.16753551505748,0.442130897330483,1.62248542470182,-0.41444814782218,-0.670176709164018,-0.0615771335429936,9.43746552907494,0.117809042251895,2.34359230975876,-0.0477778771223216,-2.31045610688806,0.055330280759295,7.55218757418367,0.902260847944545,4.93481414642703,STOOP_UP
2.15,0.282042959978315,-0.609922719301979,0.159500772036648,9.23619768805859,0.364663634947601,1.55205218922891,-0.419267925106704,-0.665662725154132,-0.0947734704244888,9.59207286710503,0.118080243090865,2.29746885049871,-0.0933714430001961,-2.31766525126584,0.0545072261729065,7.5972404991701,0.949011924552102,4.81045126746065,STOOP_UP
2.16,0.190444288471892,-0.594101146260754,0.180295589369066,9.6977755977055,0.559758099204343,1.911703143436,-0.381087136880792,-0.662779871214688,-0.123986241196352,9.72740811471772,-0.0192326543251957,2.36650712646916,-0.0830967037049391,-2.32230856912096,0.0552364360032663,7.81260318934198,0.978185464171518,4.69374053742452,STOOP_UP
2.17,0.199540608210131,-0.559216144783017,0.202762538393195,10.2962296732367,0.877552653871372,2.28181328991354,-0.377775696880806,-0.657058904669593,-0.150187528206981,9.6977760747832,-0.238143854144042,2.36615295569004,-0.07091586822363,-2.31577407387199,0.0477961224872049,8.02231593325496,0.947989413253993,4.48186058326763,STOOP_UP
2.18,0.260007724593986,-0.557543201667987,0.204821120347772,10.3400237785681,0.826990236269069,2.5325648398178,-0.411357219325004,-0.681753529489529,-0.175676725405224,9.47988599037197,-0.195519220004829,1.93482246835893,-0.042602589502301,-2.30495538231444,0.0436291966048833,8.21927058075169,0.851240001960785,4.28985303097577,STOOP_UP
2.19,0.306621819455933,-0.572673034759314,0.198414587670628,9.88116762444666,0.460064018815763,2.3578117155671,-0.379926455699134,-0.714982436116312,-0.176326322535526,9.31508172618954,-0.0060223481110782,1.58097509636466,-0.031091223784464,-2.29215515359054,0.0362873013824813,8.33635456824032,0.863337524140718,4.14787182865656,STOOP_UP
2.2,0.267975009404004,-0.606538078531715,0.214890916622985,9.48222834946521,0.36838636360378,1.99740003877922,-0.334450263871606,-0.746293972154904,-0.177651581333062,9.23923176105362,-0.259178273498035,1.65979662609104,-0.0340158081525447,-2.28089658498334,0.0200538720582695,8.34952248526773,0.773692525416583,3.92249208892915,STOOP_UP
2.21,0.219609664583643,-0.598975504482151,0.240321906058057,9.67264841585025,0.568697269372612,1.62295893781979,-0.291048248982271,-0.739353723759269,-0.182223219643107,9.61234983652694,-0.529248781600153,1.70688230526777,-0.0744892319731691,-2.26938308307747,0.0191870450057588,8.39495190568714,0.740311984649943,3.91561267700608,STOOP_UP
2.22,0.217988275759111,-0.546588643846294,0.242300326582763,9.82244027594614,0.771612681649928,1.31121258769877,-0.289651847020925,-0.727048424763425,-0.174173861140977,9.77978575307823,-0.499727358555837,1.61621285968486,-0.0737698735842279,-2.25646619679361,0.020585779328837,8.58072127155318,0.692304296466444,3.89667125387177,STOOP_UP
2.23,0.282674955521771,-0.551594065512884,0.213539816573239,9.75079755573174,0.703633374881808,0.958184064854555,-0.318291159934294,-0.70927151548414,-0.155910482722966,9.72042879742736,-0.166986360934027,1.45268507576677,-0.0442914945829958,-2.23716968246189,0.0217935987513932,8.60965020142792,0.596883751491148,3.59794379914041,STOOP_UP
2.24,0.392934261090851,-0.619157677250811,0.185865889469685,9.34953565313463,0.215089255509386,0.520111856198065,-0.347555740454303,-0.73705909825512,-0.150778760701953,9.52346196475359,0.176403972721449,1.33594383196171,-0.0200555373038145,-2.22998237520061,0.0291568424740568,8.60648274825323,0.53038996564927,3.36909998887342,STOOP_UP
2.25,0.472626538089237,-0.664326116912162,0.180712555767317,9.24603194966664,-0.263901698961392,0.256957942198394,-0.392945331941578,-0.770535092264197,-0.165270945845095,9.4905058012084,0.331978349827191,1.16855546563687,0.0117785369069486,-2.20352638192324,0.0351687096139794,8.63523509629032,0.424666840527558,3.50961777411378,STOOP_UP
2.26,0.496051725182546,-0.707755079657438,0.19785693806088,9.37452824775405,-0.595975650356547,0.277868015795208,-0.451969496348057,-0.810195141101866,-0.181836073336037,9.4795982844396,0.390516051868563,0.90009029030385,0.0610277417119446,-2.17490179337131,0.0508367263315281,8.74949751919934,0.375774842209434,3.27203769071989,STOOP_UP
2.27,0.517461826623443,-0.717360017156332,0.230927723262708,9.69855090224592,-0.506331264729285,0.258341312485846,-0.495835161388136,-0.828100053266053,-0.198427713548416,9.65198246364848,0.512262925758244,0.704120293269544,0.0761209041808505,-2.15986161882213,0.0479383770655583,8.87888354971735,0.399583421683136,3.0179191593952,STOOP_UP
2.28,0.579149693422415,-0.692079115550818,0.230048869715744,9.99958338206602,-0.132301880692555,0.0654143165341391,-0.543865828167876,-0.766951918129227,-0.212534239196945,9.81713671504318,0.586125796243832,0.398195025351542,0.110352175989787,-2.10539091747981,0.0422358859174049,9.08875424724489,0.516933885156952,2.83482689525837,STOOP_UP
2.29,0.579149693422415,-0.692079115550818,0.230048869715744,9.99958338206602,-0.132301880692555,0.0654143165341391,-0.575241728403729,-0.763324515965493,-0.217296011251503,9.61183130802108,0.684883447041925,0.0463347543274395,0.171231490408391,-2.02745317290447,0.0444309673637501,9.19255631605088,0.53075638631212,2.7794604775212,STOOP_UP
2.3,0.628760671375226,-0.669770943846096,0.222540221726785,10.0126503215989,-0.249761782671743,-0.0917143769222979,-0.555126661862205,-0.814028522500785,-0.22411645769019,9.60288805055342,0.601973600714724,-0.144490085862311,0.196944057505528,-1.96677023000746,0.0442092462079397,9.1565398920443,0.526185476626054,2.84259867519282,STOOP_UP
2.31,0.642554799143907,-0.658299352462558,0.234266428184595,9.89645890324108,-0.52341495074743,-0.0650267937686885,-0.517251764847192,-0.841009720776909,-0.21326903127533,9.6927471605528,0.440277030522167,-0.0480505643709744,0.198999920451789,-1.92459017888542,0.0511041821066561,9.26518744384972,0.569453267889389,2.76343338506712,STOOP_UP
2.32,0.612114538005052,-0.662364369210746,0.248424639606919,9.81694278883008,-0.40440247708066,0.197204021262994,-0.523998515443168,-0.875497921619772,-0.223233974261078,9.82447455598299,0.448080035576867,0.0021211042010503,0.204853777236524,-1.88019547845027,0.064817196089399,9.24216438113005,0.473876075449207,2.61468885666704,STOOP_UP
2.33,0.594970806972154,-0.672737645126743,0.252975144983366,9.72352629834018,-0.111977549198536,0.336646790895015,-0.538951463614927,-0.875656222580517,-0.220831143363336,9.83724743105499,0.504420127336008,-0.161273591195835,0.226781170252665,-1.8228634599281,0.0731068010743774,9.28201526696559,0.479466620184511,2.52248272501416,STOOP_UP
2.34,0.62216459630272,-0.681034708251801,0.233783505421503,9.66306133430105,0.170466207347861,0.103861493327484,-0.556369375088371,-0.886671692568007,-0.227312652877231,9.77479892184344,0.495375500895571,-0.306497768731855,0.24788735942883,-1.77819964198151,0.0878977270186641,9.37614006418967,0.542413757491349,2.12243484483027,STOOP_UP
2.35,0.686365516223579,-0.669757615728806,0.226056136458045,9.78008103453599,0.331003293959432,-0.407698049044924,-0.580982890956403,-0.862076834024435,-0.214121386577801,9.87880919415715,0.447851075144572,-0.448329641666431,0.255086294637505,-1.70474251036543,0.089749673106427,9.39751195180664,0.693668386964595,2.20235664773866,STOOP_UP
2.36,0.769812705460082,-0.662640434831244,0.23266499583476,10.0369261202303,0.425818213364791,-0.842238896729362,-0.619614807201219,-0.779175330955714,-0.195742791305189,9.91511559959273,0.235150306209562,-0.454195450283453,0.245067301365297,-1.62323304509651,0.0834079430824912,9.48607865353166,0.739980678224447,2.47053190011013,STOOP_UP
2.37,0.806743867319376,-0.664313262842955,0.223367133189566,10.2135097321264,0.27615448679233,-1.07700250525271,-0.630211655522153,-0.762761972125886,-0.178990387764875,9.62142707469925,0.243086262184116,-0.891316155929509,0.272609878969013,-1.57354797863326,0.0703925936335431,9.59415247255326,0.714758769662342,2.4387006492217,STOOP_UP
2.38,0.743751490586956,-0.633099431054961,0.184783821679413,10.009384094456,0.247276579668343,-1.12647302317154,-0.608943716431911,-0.818111084272775,-0.180976567193847,9.44139880330914,0.246428963277721,-1.24581042271045,0.276792505272112,-1.51027500358901,0.0560139097932226,9.57584872792886,0.729819871231828,2.45683024218577,STOOP_UP
2.39,0.683809518477628,-0.658313920414255,0.158467484977361,9.4991914663455,0.207996943327193,-1.41653829543777,-0.576621201197363,-0.836926395362023,-0.198244144642932,9.66052912648344,0.0391400256164606,-1.47895997364992,0.258385903359671,-1.44036904645598,0.0448862105319822,9.66515857317486,0.769792450943738,2.45709455155493,STOOP_UP
2.4,0.704384194813279,-0.713623968630492,0.163543476726659,9.39529483665092,0.152786129393331,-1.70889688577572,-0.515852031392279,-0.790401928319047,-0.194125764185657,9.8940103354328,0.0069815072689177,-1.63288257232481,0.224676402145722,-1.35558119158171,0.0370924476681894,9.70892290841621,0.760785954835736,2.10615182981981,STOOP_UP
2.41,0.671065348479639,-0.724006216476899,0.171206819918127,9.43586248799374,0.0265130877693847,-1.70406328002466,-0.448907659695799,-0.760692430729995,-0.208685564011478,9.96760953938448,0.125626277776448,-1.56580888818314,0.22073300144592,-1.27645242037503,0.0316438367182804,9.77947930653626,0.682052282545484,1.96825700709251,STOOP_UP
2.42,0.590917192842768,-0.735503533386745,0.182477202952957,9.57782647582985,-0.24829371880303,-1.64753708716314,-0.386334485495881,-0.755859123357709,-0.196592316012053,9.78550660864523,0.473490220997046,-1.81824570806783,0.189580139632326,-1.20520437755916,0.0310556265002489,9.72051001611976,0.57840693249757,2.05276617284512,STOOP_UP
2.43,0.512861394070694,-0.710645880033759,0.206290633892248,9.78779411387559,-0.266850017207026,-1.21753220222631,-0.343183620320455,-0.741319814022321,-0.178943612655895,9.55200543973681,0.91839568953403,-1.62660485302703,0.202174814241266,-1.13918408175272,0.0290189739821545,9.79278783375456,0.566108653685527,1.95828518666526,STOOP_UP
2.44,0.418335587362618,-0.678878326161089,0.228648380039548,9.73412874832385,-0.122167562465493,-1.21017938692071,-0.301621312876902,-0.731858558494497,-0.169869768201733,9.37203095906045,1.30313286310709,-1.38322710814581,0.22468016681497,-1.12691100865913,0.0389062265142956,9.79400917597858,0.568060056234015,1.48363411802637,STOOP_UP
2.45,0.30358761147951,-0.661817067024561,0.240880996353737,9.63184509235979,-0.0065457610793514,-1.1868546150035,-0.303590440954704,-0.72741909189349,-0.166050643361816,9.32111361706368,1.60137587838579,-1.33398195472158,0.238638806594503,-1.08985653161539,0.0316167253512558,9.87230094415418,0.64805879609084,1.60492519864203,STOOP_UP
2.46,0.191653016490041,-0.62849066384232,0.248405636083277,9.87239239874488,-0.0718784863446345,-1.00611198155812,-0.261632639125632,-0.697257014507668,-0.17441429379406,9.53508501749324,1.47686585148521,-1.12713912147548,0.233287206042789,-0.961978583201253,0.0251141835620252,9.75489405987247,0.711611420286002,2.22893798444225,STOOP_UP
2.47,0.108564935729572,-0.591215988551861,0.255182814835981,9.87672969645247,-0.374578335190789,-1.12458167495347,-0.162450471141286,-0.699040673782101,-0.189674742950726,9.75503807793147,1.02769517552515,-0.973956480622978,0.195115537791204,-0.88911108793851,0.017988269880486,9.67247952756628,0.767625417706038,2.22331108402851,STOOP_UP
2.48,0.0320492382381542,-0.581385425336634,0.267264475299158,9.87721093637882,-0.654110771137114,-1.08591744398407,-0.086513642638011,-0.681572100350154,-0.200039737990866,9.96584097599813,0.717530942962933,-1.24248191493014,0.147589363387614,-0.896581068546072,0.0186060489550829,9.73248622519075,0.691272007974315,1.5809790173404,STOOP_UP
2.49,-0.102545229558896,-0.553715848604813,0.274049655160318,9.87795902275516,-0.288567922507472,-0.892928914827283,-0.0207530394283383,-0.671342092839278,-0.202596978248356,10.0277262181768,0.690587932431364,-1.50553758874919,0.123290522143835,-0.831284872123501,0.0193024087659548,9.76178959111732,0.76271898446198,1.47065484200451,STOOP_UP
2.5,-0.207113249952522,-0.523182873288351,0.255787335968968,9.87965245011055,0.0780423738117622,-0.858655777413508,0.0293723409691323,-0.629031153400375,-0.198283118003239,10.2577806418552,0.791211753969085,-1.46077890628358,0.120755038452517,-0.763191337794454,0.0314244923506669,9.83105950604501,0.851317671691664,1.39621319896745,STOOP_UP
2.51,-0.216711574021251,-0.515949424396274,0.233091668905324,9.7934191085721,-0.0585177914171015,-1.06966574139332,0.108970384501779,-0.611308769952979,-0.19391792988698,9.98800003197791,0.667885870734156,-1.40660992233906,0.131337529594562,-0.743070859637208,0.0266835151323303,9.86675609655123,0.902834375501968,1.73773426054543,STOOP_UP
2.52,-0.254584864523706,-0.508661552555808,0.230355808275428,9.87529714026942,-0.159835407628385,-1.1748317470718,0.142908741019936,-0.629475768057021,-0.190884582080306,9.7324420380852,0.4969576949124,-1.59977160695689,0.10733934269049,-0.701114260757482,0.028322333739386,9.85307645761617,0.808555305121169,2.12997073768094,STOOP_UP
2.53,-0.301711504235255,-0.457091477187198,0.217957672300348,9.87314140998685,-0.0530474846405222,-1.06757424576505,0.169690308520484,-0.621076734932574,-0.184977870106078,9.59863624767693,0.248096030503903,-1.76582879933569,0.126030927393926,-0.695544426486268,0.0308885602549596,9.76366535110502,0.742870409484095,1.82143172372129,STOOP_UP
2.54,-0.285395741621884,-0.427320293031252,0.204047355474402,9.82169965728647,-0.0550165318122052,-0.866092233143223,0.245987566413708,-0.643555570785429,-0.193611785625305,9.48570764600349,0.221672239843087,-1.83284635008699,0.141727874695584,-0.750810609403651,0.0352645937712149,9.79500334089158,0.768741232960185,1.01522554491047,STOOP_UP
2.55,-0.251446807896845,-0.389443449319764,0.19725773552298,10.0761914328793,-0.375508348416193,-0.929737410307409,0.351133971146543,-0.634280181936996,-0.207816201517349,9.8542676856763,0.633047296560958,-2.12815420212015,0.14773464477492,-0.68133458555172,0.0354108078001194,9.86011002275184,0.800114008342447,1.42640751906413,STOOP_UP
2.56,-0.178892462650006,-0.376437042843754,0.192897716244124,10.1304822319757,-0.727606937118486,-0.999211869031118,0.391937729908453,-0.571130633473684,-0.228912596939292,10.2797871031989,1.05915119196218,-2.34552383417401,0.112018995025983,-0.617688486569605,0.0347739472947844,9.91375117689973,0.844511640202278,1.7543159901699,STOOP_UP
2.57,-0.105304073406706,-0.402329072709352,0.178284337885161,10.0196708757101,-0.881391036733904,-1.01401837244217,0.363062799896938,-0.553018806417433,-0.23978614221053,10.1800679922269,1.13626668984919,-2.42841180120018,0.0679270896005644,-0.587797708954277,0.0191914637660685,9.94512244823017,0.870043001810605,1.68663562484427,STOOP_UP
2.58,-0.012432169147667,-0.424784948311145,0.151483957420385,10.0087176123114,-0.93678045110781,-1.10058189250513,0.288126278708747,-0.567957257145559,-0.227701104453514,9.76692990978354,1.22638834334052,-2.09796939549604,0.0423712776605438,-0.559125466467964,0.022760169730399,9.94450870292309,0.788696216668478,1.63382617654612,STOOP_UP
2.59,0.044643504572383,-0.38116463691251,0.14048690562738,9.81221525263092,-1.0729126060251,-1.19719014277012,0.217255591864406,-0.612720981175401,-0.202893682971601,9.53896666235758,1.53233409180289,-1.74968498529985,0.0465958304672234,-0.550376984280586,0.0199698312630001,9.86766743141851,0.702851996539437,1.5980373328297,STOOP_UP
2.6,0.0804563107396867,-0.355655139816111,0.124395928576639,9.72028482462264,-1.19431396562436,-1.20655028667086,0.147630612302965,-0.647174707310465,-0.181036898858267,9.47109240206999,1.81445675822301,-1.75031119422823,0.0486769747461608,-0.533149161380063,0.0215993907583658,9.71054653421956,0.56189857267921,1.46634897859781,STOOP_UP
2.61,0.153321338255771,-0.332150240130321,0.118017641778312,9.63431436700585,-1.02639553468787,-1.2818098912463,0.0536117714069154,-0.646096975024518,-0.155367399129133,9.36113983307345,2.05399628103881,-1.76155975382417,0.0436729897851121,-0.502981729427635,0.0298355863677318,9.59367010153763,0.486471977961189,1.29147957645495,STOOP_UP
2.62,0.202594368714322,-0.328610844556765,0.118659500394536,9.6763349854567,-0.835856910901851,-1.1648564004808,-0.051968220365289,-0.618753065545048,-0.134390943561503,9.38576707699896,2.19948610426873,-1.75971520109289,0.0400977462278353,-0.488587814608612,0.0362664631245103,9.54233456180235,0.541164999859659,1.21018628436526,STOOP_UP
2.63,0.191606652156894,-0.274959422566742,0.114338672223785,9.72755981374203,-0.574185245122746,-1.24508918922405,-0.110578253183287,-0.535014037536498,-0.115364306942934,9.30509940487514,2.20002086178451,-2.25016696147098,0.0426352324364206,-0.460389002026564,0.0320187397651365,9.59696715411716,0.611273058950032,1.00817027202267,STOOP_UP
2.64,0.116315220605125,-0.227854882184691,0.104572751606422,9.66693527514122,-0.359969142402006,-1.34304307261131,-0.0880606208859723,-0.443510456664759,-0.0886147254742587,9.46586336159062,1.83568924237722,-2.04110641388654,0.0345249870622696,-0.439276110744681,0.0300633275939061,9.6802653561429,0.724384173735343,0.95519375677403,STOOP_UP
2.65,0.016910484993027,-0.185166697143357,0.0945337981396573,9.6402784411026,-0.127087078883422,-1.4840370281616,-0.0505081952766276,-0.37570815583959,-0.076092387149233,9.72350761957398,1.11768257295629,-1.6936551008116,0.0370422021162424,-0.383192595822341,0.0215791126165859,9.78704212154677,0.816877326608737,0.97108821501974,STOOP_UP
2.66,-0.0727102830734155,-0.131834377507107,0.083332744072775,9.65116387771187,-0.227986339292346,-1.47184769051995,-0.0225725509715445,-0.263576845447863,-0.0575661244747881,10.024628658858,0.712500249354909,-1.6961748384447,0.0297962237608788,-0.326053807089658,0.0062384240504949,9.92863869569804,0.931396060500889,1.14837330822011,STOOP_UP
2.67,-0.147410706204545,-0.107556799840246,0.0835836061928252,9.66227165715828,-0.377546359227005,-1.62672391304284,0.0249383714786426,-0.186927508920554,-0.0439285504935646,10.0412790121898,0.728848017383258,-1.6094225391167,0.0162851369085236,-0.26493870406846,-0.0032375168458629,10.0208107228463,0.993617630617117,1.10554145943785,STOOP_UP
2.68,-0.197317428048507,-0.0911306362762531,0.0826307109811425,9.63660201450498,-0.645839968738403,-1.73445044954645,0.0853623833987654,-0.103049374332978,-0.0281201187022084,10.1138907487679,0.781381184078462,-1.54585802441717,0.0095856510553269,-0.198295714350735,-0.0262709517520571,10.1643308200189,1.11245962160204,1.07003533171218,STOOP_UP
2.69,-0.238864423782422,-0.0870108693430295,0.0745119330837427,9.57346193979311,-0.95565390340334,-1.97295894964123,0.110047309829,-0.0491081265612769,-0.0165001896078512,9.83220188553383,0.916024683368258,-1.41605745779088,0.0095856510553269,-0.198295714350735,-0.0262709517520571,10.1643308200189,1.11245962160204,1.07003533171218,STAND
2.7,-0.231993321873234,-0.0926798037872129,0.0684035156646338,9.49760752629745,-1.11680962513136,-1.96549708161017,0.059845991809223,0.0002115324163758,-3.34004372232e-05,9.7114057699404,1.11195046698602,-1.44401122416127,0.0015287030593352,-0.164899884803739,-0.0327650504087227,10.280615596632,1.15826177579984,0.87961504086392,STAND
2.71,-0.217725788948236,-0.0750087485666237,0.0590767764616937,9.57117269864147,-1.15440261100807,-2.0498483011717,-0.0111484212047782,0.057172834272743,0.0004264479221132,9.53977828793938,1.4489010681816,-1.61315990162822,-0.0118390832446966,-0.170220278138408,-0.0207415634288595,10.2144522679595,1.03322373067947,0.720047846722214,STAND
2.72,-0.202488510405833,-0.0625134715318604,0.0516671937748343,9.60054679294117,-1.31370411361488,-2.27209962371555,-0.0326495407994447,0.119261124479925,0.0059348378901248,9.43660890941422,1.56972702591085,-1.86980884444812,-0.0304181454589954,-0.163740721127776,-0.01367770684672,10.2665233894398,0.955104087464003,0.503429223484398,STAND
2.73,-0.14301172460259,-0.0671088557539039,0.0443928822026779,9.56463430254329,-1.25289370160613,-2.40917529354082,-0.0478349912523399,0.0888048420530402,0.0073865693955788,9.32724454026759,1.51315106461669,-2.12655977357519,-0.0431843693048214,-0.169276783858086,-0.0136693605941271,10.1419715307717,0.860425220149759,0.37681533733625,STAND
2.74,-0.0802676078543856,-0.0693453937796949,0.044919316934036,9.62273066942062,-1.25242376118761,-2.34851331214013,-0.101859912368962,0.0526600782564959,0.0075062014809156,9.45125411134442,1.26554504792897,-2.56318100153072,-0.0520981706971481,-0.181822398511563,-0.0117107109855105,9.92195220263671,0.73486750062988,0.276745102833935,STAND
2.75,-0.026410683588573,-0.0569018229270052,0.0545316641611326,9.5721357526489,-1.11198474482641,-2.27325383712081,-0.123548039711072,0.0255987663193876,0.0137807864973863,9.33918020985399,1.08492291145473,-2.63760790179166,-0.0635737386191196,-0.171615037637281,-0.0218040234264305,9.80770830534834,0.574234293084083,0.179175162056824,STAND
2.76,0.0071742877297281,-0.0695289009337982,0.0537718112764225,9.66577244966602,-0.923194119750623,-2.09084037641689,-0.13200250323052,-0.0234731435556063,0.0016816805872826,9.3059875751235,0.882654422774776,-2.77783083038134,-0.0618149445812577,-0.169612995063502,-0.03985549656447,9.86396274070329,0.529169627493028,0.216568049742648,STAND
2.77,0.0589180454170095,-0.0750820804110867,0.0532776015721203,9.63223621089994,-0.651423991693767,-2.09493413493991,-0.112107099360017,-0.0538354091686086,-0.0013514155652394,9.52820622145892,0.730734565306784,-2.63822333895196,-0.0614338249272063,-0.170735554891117,-0.0455558329243922,9.87330618267415,0.463383423750347,0.283500804643248,STAND
2.78,0.0600307918978344,-0.0909457186914458,0.048840312469082,9.63217711723734,-0.609496059446689,-1.93144536450043,-0.0752335973852978,-0.0604708752145113,-0.0016286543250685,9.62890688940959,0.700953979657541,-2.32681491312651,-0.0498483247944742,-0.147167394155791,-0.054425036112956,9.9610020019314,0.484951195217558,0.458252885980499,STAND
2.79,0.0089922140545614,-0.0882842075740227,0.0432301170490871,9.8254042893205,-0.493059849524515,-1.78495063036618,-0.0403823513724697,-0.0511107818769639,-0.0066786911579414,9.77545603901135,0.749125076438114,-2.24479041943633,-0.0422639910325936,-0.134606839808037,-0.0504166343425246,10.1142509400252,0.581044766186686,0.532048755258099,STAND
2.8,-0.0402625674417032,-0.0730080830441452,0.0318510338906873,9.7637428660649,-0.505598493831275,-1.5212920778709,-0.0176613546224565,-0.0154768379120854,-0.0058048232247855,9.85143366277589,0.961320103524128,-2.19623800942626,-0.0175145104125771,-0.117651101166737,-0.0432482272875455,10.2590631947223,0.629469594237378,0.43930336556527,STAND
2.81,-0.0471780361161023,-0.0645279460845454,0.0167099359569452,9.75856187330122,-0.65187947086975,-1.49453644685423,0.0392613337527848,0.0056287751206308,-0.0093654298618031,9.74686252829853,1.09858532092366,-2.09227135899545,-0.0050734341588791,-0.110905755478737,-0.0373518745177101,10.3660242053023,0.71918807657741,0.458428936663811,STAND
2.82,-0.0568744778758895,-0.0415617595318897,0.0048797914090665,9.74107486007464,-0.785734322187122,-1.42056733744141,0.063575498310112,0.0242241359129818,-0.0061422609985112,9.68474165798965,1.2224200480218,-1.92830488925273,0.0101756228644193,-0.130379067062434,-0.014751634785678,10.2231560250393,0.81525866649319,0.469836903556107,STAND
2.83,-0.0319587826403624,-0.0042487830421502,-0.012196296211387,9.76275950306433,-0.783414156976051,-1.52137072655307,0.0635201651592955,0.0438173523698614,-0.0049825191903925,9.70153963182711,1.30465500650773,-1.67558914316283,0.0021627689848004,-0.124478336204378,0.006992851892402,10.06808450648,0.838096163435447,0.508673184726803,STAND
2.84,0.0236534177545717,0.0108288779593763,-0.0083569968604822,9.94889432436829,-0.778116406397489,-1.7828081192418,0.0243252413370776,0.0251952889916848,-0.0108840478205206,9.50488625655102,1.30987460525145,-1.95727731628143,-0.0215930296687946,-0.0942475108060114,0.035773899027961,9.9770543406582,0.811936554252704,0.417099286064611,STAND
2.85,0.0190711903932906,0.0147057909582701,-0.0094162475679161,9.89876435862107,-0.640319963760899,-1.90612211080212,-0.0002138113384732,-0.0075215268491199,-0.0153744931414467,9.42644081155853,1.15515548075342,-2.11666510133104,-0.0529856874431836,-0.0672672525349947,0.0410380301165698,9.97333509144968,0.725750534682224,0.283352442626804,STAND
2.86,0.0054548216917129,0.0037629160992846,-0.0086030044410851,9.5929954985002,-0.311660023331976,-1.86008329389359,-0.0271009214752645,-0.0166218247000227,-0.0149679677948822,9.50701650193693,0.991009719346655,-2.24173612832925,-0.0630954047123318,-0.0270075972032948,0.0368288966313992,10.0431866112255,0.761165097276163,0.217800311548379,STAND
2.87,0.005829239206133,0.0023041575442097,-0.0116697157124646,9.4039685947319,-0.478711581940315,-2.00148329863382,-0.0360927544743798,-0.03416068277028,-0.0131028236693704,9.45577975408316,1.18834112820004,-2.37918019237347,-0.0795623099074099,-0.0154802852664791,0.0355561982709069,10.0087181603355,0.71877315287556,0.0156716813062437,STAND
2.88,0.0368713069277833,-0.0085590234966612,-0.005352575239228,9.20393246311993,-0.860114871843885,-2.35491927376149,-0.0187331026323711,-0.0637644350473142,-0.0082205861531666,9.3009673173424,1.16179134735161,-2.34033419223822,-0.0820396269782077,-0.046755253193742,0.0296068245352182,9.85479522289636,0.737788850079146,-0.624110001134499,STAND
2.89,0.0298885853194982,-0.0369423930607079,0.0095044582046933,9.21874742165767,-0.865188262902963,-2.1955643711673,-0.018020869275447,-0.0828453136209906,-0.010671088137623,9.29266720068581,1.09348456393307,-2.38778217891299,-0.0369696374893293,-0.0330922206245882,0.033395758813422,9.66231850018401,0.765585225540604,-0.290822091622609,STAND
2.9,0.0616826278426205,-0.0533883802722355,0.0232193852967493,9.29232636102454,-0.59295579309204,-1.98511165356255,-0.0060264945024547,-0.0803572232446068,0.000331769565933,9.29338911199125,1.01882849497725,-2.07743389488379,-0.0486332886948022,-0.0378219656046622,0.0315730018200135,9.53937272180542,0.782229970025251,0.24092638035811,STAND
2.91,0.0583644693151989,-0.0466666461379437,0.0263461047032558,9.56634668282578,-0.459224135230287,-1.63529053450423,0.0018064835129378,-0.0681198740812525,-0.0021497147782752,9.46347494248989,1.09456470770685,-1.97794005668187,-0.0643552278082353,-0.0578133243059955,0.0271114937973043,9.70658886133941,0.723825242352084,0.0397932702933708,STAND
2.92,0.0175696673788875,-0.0260562456307807,0.025293021193053,9.8259604852397,-0.433790297686941,-1.57430341621896,0.0018477600588681,-0.049660368549126,0.0023148812241389,9.68316577445312,1.13818585477021,-1.88908477126511,-0.0386422222191041,-0.0732284367606898,0.0269386991324487,9.78138661038052,0.65928832181815,-0.33015360426522,STAND
2.93,0.0210168196724133,-0.0012526285808386,0.0192290031012327,9.91252785979393,-0.340277218252904,-1.36714842958597,-0.0298200263948179,-0.0229750068996043,0.0141154810205208,9.77333498843611,1.07405616282235,-1.69653072610172,-0.0524963656631744,-0.0385276237808646,0.0187446024066313,9.79545638483505,0.647609451331885,0.0146727936713682,STAND
2.94,-0.0079455939007806,0.0196937029278127,0.0129884380789357,9.95308048366155,-0.33745840698755,-1.0963107972519,-0.0542415152348476,0.0018189207808614,0.0328442692391136,9.76946969723185,1.05538007194725,-1.66737523552524,-0.073397565111004,-0.0104922398123499,0.0079994898086092,9.93710073358133,0.648505874204992,0.213073867585593,STAND
2.95,-0.0442901389956183,0.0265493919603544,0.0131503883890855,9.84708422914188,-0.305107867836111,-1.10524048475068,-0.0618690275180945,0.0124301462576173,0.0322994977119573,9.73805192233897,0.955692206371595,-1.78655182845183,-0.0658308194716567,-0.0179161118443997,0.0006253775571459,9.91689715935948,0.638256071770301,0.134316356758587,STAND
2.96,-0.0523297401741577,0.0177718723284551,0.0099907957325482,9.70731376287051,-0.364313621213284,-1.33528713804813,-0.0755361082255643,-0.0001423168191362,0.0187868277060655,9.52038693616918,0.87478738926296,-1.92037645910347,-0.0461060195000217,-0.0405531932664722,0.0001722366132686,9.80719596367934,0.562150086512198,0.123824995810862,STAND
2.97,-0.062128118330432,0.0173663274124922,0.0132363114769596,9.6481983864188,-0.362991107089373,-1.2984610861972,-0.0515365610175249,0.0054462262701447,0.0173959051215604,9.40616107424696,1.0721692385297,-2.22188208090785,-0.0246813536047768,-0.053807992826576,-0.0094423006487844,9.63552355307923,0.553284154214634,0.104097723859712,STAND
2.98,-0.0799562924748988,0.0068527173873034,0.0200836503717306,9.61894973597816,-0.39301742793851,-1.48042974769474,-0.038161558363331,0.0046216585546317,0.0062353990143766,9.33537520450413,0.911281350755832,-2.08245192544343,-0.0165672271499692,-0.0598823945921549,-0.0047443898796156,9.51789666767434,0.539469966339945,-0.0142791393839462,STAND
2.99,-0.0695641764388944,0.0046062506120452,0.0128492835023434,9.53980161520784,-0.449862886318155,-1.64422713834344,-0.0662094752407281,-0.022677188402172,-0.0092323926450347,9.44864251239359,0.735023436676021,-1.98969432230256,0.0035717439860242,-0.0654855462281924,0.0024645019764051,9.48483043078786,0.592598889270747,-0.071719446015028,STAND
3.0,-0.0355971570736796,0.0114300996586579,0.009561304445614,9.57913623762992,-0.520868261352614,-1.64198752450957,-0.0581807782189901,-0.0126934228552363,-0.0050974063264433,9.49768650598115,0.975904110636651,-2.12704083220359,0.0256793114808574,-0.0700530582811352,0.0139951063478072,9.51984678441405,0.680516830509655,-0.136725715870995,STAND
3.01,-0.0072128211924467,0.0160912284104238,0.010262908637619,9.59052339360679,-0.670519863514427,-1.44620951033015,-0.0438980489295895,0.0052716158338981,0.0033478128118472,9.61578992974334,1.12143475134851,-2.02742592786631,0.0253119374214004,-0.0486270025635311,0.0330230994084983,9.60712995673866,0.736624591539727,-0.103771478824603,STAND
3.02,0.0096980336832758,0.0094812552810529,0.0076865630101517,9.70789371214766,-0.812772425669352,-1.27511686445176,-0.0485072435005669,0.0007980235025495,0.0156546501365607,9.62767999883416,1.02416401768265,-1.71984457946678,0.0135075531001112,-0.0313061041881671,0.0420974042871897,9.69501704829652,0.774282631234675,0.0173309654814248,STAND
3.03,0.0234038945039816,-0.0116449092751198,0.0054599196247738,9.78488715121171,-0.95853660068899,-1.37516802905323,-0.0750895449551005,-0.0039824346967468,0.0249844664271902,9.56359693002834,1.00610923459113,-1.73791359420575,0.0125513928289518,-0.024785493444891,0.0530929423435452,9.76635991298439,0.779113327423762,0.0712439975360463,STAND
3.04,0.0160279593728934,-0.0020946815521898,-0.0010593219113849,9.8265537460546,-0.899732341456907,-1.27447774106465,-0.0857470358804332,-0.0082385460708369,0.0249938402382908,9.56100288880951,0.953045662625698,-1.80860966931152,0.0325446988180289,-0.0269083723358446,0.0556789007243659,9.785978887637,0.796520171066019,0.11433763208529,STAND
3.05,0.0245441915984936,-0.0058663340297864,-0.0017307033050261,9.7858611117695,-0.832377790284121,-1.37994579036612,-0.0886479172643897,0.0116633769293949,0.0247765492052695,9.60199834729313,0.689330791976148,-1.83488942096503,0.0352179514966939,-0.0285231416440481,0.0463674081715702,9.79405598054835,0.747162470515841,0.130176672015696,STAND
3.06,0.0331934522585765,0.0015879019171866,-0.0093116817024011,9.73883156471155,-0.718146487040527,-1.49813731358587,-0.0691771043841344,0.0036117042071946,0.019897100771703,9.5333753151435,0.634026709139414,-1.67346504281547,0.0385442112380744,-0.0463534211293431,0.0274796556735198,9.74877109725716,0.725577380257648,0.102244383427163,STAND
3.07,0.0589097121327768,0.0211361129640104,-0.0108387963560921,9.75952733167886,-0.678884232214891,-1.73434588826214,-0.0872680906887154,0.0035583384009872,0.0063942859184251,9.60185879868197,0.580500411888965,-1.79554364733064,0.0497067641647735,-0.0677631640628592,0.0148850000441165,9.79552852453153,0.745468057510088,0.065874360914286,STAND
3.08,0.0569943252636238,0.0196163256732604,-0.0042849759440515,9.63927213406362,-0.566747732935428,-1.63622627003652,-0.10855327525718,0.0142496888160796,-0.0124292187826707,9.67052396100052,0.604528698065483,-2.11459718883852,0.0546458868432818,-0.0803145818118877,-0.0003746146271382,9.87320790873284,0.743626677308819,-0.0391182936057927,STAND
3.09,0.0559381651541743,0.0047582977635276,-0.0080120931052119,9.54154674089504,-0.607102442383643,-1.72995517711733,-0.101024024105607,0.0368800144260154,-0.0187168045155351,9.54876627471263,0.610624035349445,-2.26769372012823,0.0618363630869914,-0.0834952281318913,-0.0084354731577156,9.90804114270512,0.77631684095706,-0.1805881667632,STAND
3.1,0.0543812813328697,-0.007708902787736,-0.0099043858602932,9.50733316988334,-0.586614779249417,-1.82215377573395,-0.0234932586060986,0.031068482201243,-0.0202732907816973,9.43316676484516,0.664729540934148,-2.22961090972906,0.0825902678736352,-0.0697152543555902,-0.0040463040509967,9.96578482414839,0.809584849908448,-0.266694719890595,STOOP_DOWN
3.11,0.0631324062018758,-0.0133389644255182,-0.0081040878545577,9.47197305902237,-0.734117389024597,-1.87473022033866,0.0247067472358801,0.0301522880362667,-0.0252156390323357,9.44167623750871,0.701691481944826,-2.28581715846818,0.0825902678736352,-0.0697152543555902,-0.0040463040509967,9.96578482414839,0.809584849908448,-0.266694719890595,STOOP_DOWN
3.12,0.0429001634389901,-0.0317952905548419,-0.0016188439916042,9.50265835242021,-0.731829840770972,-1.79062290189978,0.071240099008706,0.0299472715875847,-0.0271812044913504,9.49603443907118,0.829687452520378,-2.20147938641275,0.100542566358799,-0.0494697498505364,0.0007403399536293,9.97089841911488,0.794762074827028,-0.3728111051822,STOOP_DOWN
3.13,0.0463181580655763,-0.0286316609220988,-0.0049074912873787,9.55635719361321,-0.642747017543335,-1.77413302833891,0.0973970593734026,0.0416978716857561,-0.019774733732015,9.54191558233174,0.976973828059984,-2.1062984398404,0.109806250120109,-0.030333395776119,0.0038382862701132,9.89649164573853,0.790072076482351,-0.356958322330997,STOOP_DOWN
3.14,0.0453104882928368,-0.0245051920539341,0.0021321044517736,9.63697163520302,-0.654420647611599,-1.67346481616218,0.111823949253527,0.0427703447230761,-0.0097198804693898,9.49003965302758,1.09903093439816,-2.09882795688202,0.0914627946344203,-0.0093805264556914,0.0007340135825913,9.84638639282986,0.769807907288897,-0.197502663357151,STOOP_DOWN
3.15,0.0280436849479598,-0.0151067270825637,0.0009962274231694,9.63035628825578,-0.649579140113558,-1.65221477472524,0.104977594652276,0.0478544705987199,-0.00444127502681,9.44379870533009,1.23614398864067,-2.06124605505795,0.0662967671940777,-0.0003002868385707,0.0020647867426096,9.88196639870408,0.707542333299872,-0.169360514651878,STOOP_DOWN
3.16,0.0111620756814169,-0.0078345826819174,0.0001840291835486,9.65780578185647,-0.54178128411927,-1.64610541544192,0.0927797839184044,0.0236106593411402,0.0005755139514645,9.41552022601326,1.35262595965693,-2.19523501948423,0.0455680521016889,0.0089476639997608,0.0022668974911328,9.89266199571987,0.657194105760987,-0.227144247730321,STOOP_DOWN
3.17,0.0036771004646315,0.0019637924127453,-0.004203377012638,9.69303444734989,-0.394310980153195,-1.59477331998098,0.0741775722316071,-0.006383624411173,-0.0053163724498967,9.42419858018535,1.13430152514625,-2.28041751534026,0.0357045228170119,0.0195912161101882,0.00456713829213,9.92057343839438,0.63907431448436,-0.215841939657169,STOOP_DOWN
3.18,0.0044359484933687,0.009849095133175,-0.0117320644192709,9.63572996680416,-0.459912588243562,-1.61967057099624,0.0454096237663668,-0.0271122180570526,-0.0135726063714259,9.44875933938435,0.964869525958112,-2.27702093166925,0.0269451274626441,0.0323923568176181,0.0006682240618653,9.83164706266535,0.573259461075742,-0.142218291402176,STOOP_DOWN
3.19,0.003926859556149,0.0007666688500186,-0.0051171149414945,9.61554083169546,-0.446200988017297,-1.6538865880609,0.0484036591557757,-0.0414829065184131,-0.0241232916907171,9.41068160986821,1.04918700899953,-2.3577710505336,0.0286828908160734,0.0386458757891711,-0.0019690042217854,9.80311772909479,0.587496495926744,-0.0945947087823144,STOOP_DOWN
3.2,0.0362821235361902,-0.0170156299661547,-0.0021436296852159,9.66419960560184,-0.545859638612395,-1.66881327412165,0.040369001377224,-0.0514447058660442,-0.0282756346607092,9.4549828782425,1.14335464126774,-2.22221754002478,0.0357500958475978,0.0344729285225885,-0.0038377179996733,9.80847270659208,0.572541027439257,-0.19056273796206,STOOP_DOWN
3.21,0.0564648042033017,-0.0221736130346348,0.0042965430666497,9.69215230415034,-0.592535896426903,-1.75551392189348,-0.0061993935089499,-0.0523092716560822,-0.0394089329992729,9.48964565495579,1.20577525735173,-2.0874072900164,0.0422723249768415,0.0353163573982547,-0.0025524556320523,9.84652426655523,0.635231899537064,-0.182894760743718,STOOP_DOWN
3.22,0.0815614396648282,-0.0320142449822578,0.0053462302314861,9.64828071171737,-0.667840132244888,-1.72542939838794,-0.0335113667503492,-0.0293062242266874,-0.0318882994469884,9.60570429650437,1.21221696572648,-2.1140401509937,0.043464943911952,0.0357424175173296,-0.0064106208601168,9.90777491689212,0.699081720916668,-0.120110868791768,STOOP_DOWN
3.23,0.097464064513694,-0.0550778574673511,0.0036979076214758,9.60073870425335,-0.679258659554028,-1.73945645519908,-0.0363423679108506,-0.0464390361797371,-0.0247579100578631,9.6199485907663,1.10194514756599,-2.00041854176954,0.0468821242161934,0.0428817660253256,0.0053991415740338,9.92413882247458,0.747733009499637,-0.135148545058901,STOOP_DOWN
3.24,0.088405035924899,-0.0590681779257548,0.0042123379999645,9.59774184959346,-0.57208857427623,-1.71990435983438,-0.0169255918018943,-0.0307134004270923,-0.0088176902419983,9.65570797470819,1.07525757729031,-1.9755406770896,0.038934050108143,0.057661539637,0.0054145725356262,9.89175006431409,0.783541897664061,-0.095909425427708,STOOP_DOWN
3.25,0.0733970068954575,-0.0624238176055373,0.0050258913845914,9.64171025592219,-0.496106813984899,-1.6543582027987,-0.0091585069978732,-0.024005529604493,-0.0004832288514446,9.50594231609984,1.17277047011846,-2.00174813951059,0.029325735720683,0.0644625694753308,0.0103947439751775,9.81900825353435,0.766067955402882,-0.03761587554832,STOOP_DOWN
3.26,0.0355036238693962,-0.046136805727383,0.0026847459609995,9.61570633098183,-0.43370668845518,-1.603958930563,-0.0063973697106022,-0.0378276053726044,-0.0073460455948181,9.43748053029163,1.05041031277045,-2.1051167348068,0.0215567370877795,0.0662740355760474,0.0064048175125327,9.74619885533209,0.748593634950225,0.0210852209058082,STOOP_DOWN
3.27,0.0124888630440532,-0.0268723674627989,0.0050574934997521,9.67610159431329,-0.432091512908868,-1.53940725066513,-0.0189540454870474,-0.0467738423495417,-0.0099679732637918,9.44386151639561,0.869625615747323,-2.09322312604959,0.0163139095073902,0.0641258923522903,0.0035876604545343,9.69441511349856,0.761334864516429,0.0162719880088521,STOOP_DOWN
3.28,-0.0104994263552161,0.0038571244430325,0.0026223461732411,9.66491405405534,-0.448654135247582,-1.59148421695302,-0.0298228878889241,-0.0526095300074279,-0.0160534370975555,9.41911065206966,0.842468566216545,-2.11761137855776,0.0125204304885378,0.0585462335299522,-0.0004078366676004,9.68324356390063,0.677761560904936,0.0824806588360606,STOOP_DOWN
3.29,-5.56555269047e-05,0.0212481970159102,0.0026872430677574,9.62179632820262,-0.522330010644619,-1.55763661171384,-0.0114284814873586,-0.0583236270288976,-0.0225542624974924,9.37901749727779,0.963164066878371,-2.09892812230012,0.0137689375297568,0.0616460396766772,-0.0128003943250096,9.70954555674211,0.673455232425106,0.0665159938757662,STOOP_DOWN
3.3,-0.0035903666657033,0.0304859520740872,-5.99874202863e-05,9.61622556369526,-0.557498869490863,-1.49597267714945,0.0251933261993603,-0.0508004437021146,-0.0273470636731955,9.51296274533769,1.08934572855118,-2.17521346717285,0.0110514122967992,0.0555361951821684,-0.0144501103991124,9.69093966752175,0.619568929271517,0.199711422869286,STOOP_DOWN
3.31,0.0153631375109569,0.0120439748075797,-0.0019308029066478,9.57292796221474,-0.662982287156355,-1.66151361108687,0.0513816752928622,-0.0351916432234603,-0.0205144766641501,9.5418396951967,0.972718155823372,-2.04358266592846,0.0082282609225655,0.0606728937700655,-0.0097673355830996,9.72582427915566,0.574919332272966,0.148497304465805,STOOP_DOWN
3.32,0.009007760501202,0.0039910475980809,-0.0005365452860129,9.63849089910295,-0.6707945743784,-1.71905107373635,0.0625306809261344,-0.0222674440145383,-0.0191264895162598,9.58538897963128,1.06751760445785,-1.96643916300659,-0.0017624033621209,0.0595224128258774,-0.0056733473117382,9.76854269738472,0.619345512260314,0.11406378655439,STOOP_DOWN
3.33,0.0262458238420454,0.0054101255054207,-0.000836570619047,9.6059791944081,-0.68755297860058,-1.67114325568042,0.0472347112477281,-0.0027851054976574,-0.0098572633076654,9.62472043030608,1.11097995945027,-2.01842131643466,-0.0055138833760114,0.0617289805744386,0.0012984412731953,9.76958988320305,0.622847398002669,0.0655281706009657,STOOP_DOWN
3.34,0.0304132516276447,0.0043126808132969,-0.0034868808439829,9.6981139964792,-0.714095928418267,-1.71699233160553,0.0237270606769925,0.0235811626100985,-0.0063111134045611,9.56911154729364,1.07337508693274,-2.0467960984482,0.0006264247975014,0.065482208484529,0.006147991086567,9.80622553063786,0.697642196970974,0.0442641123203817,STOOP_DOWN
3.35,0.0291543628071489,0.0116126730194593,-0.00570676202038,9.71222825505351,-0.680432864965302,-1.69465160254082,0.0065179837672154,0.0383948122122468,0.0003202603798844,9.4958408648698,1.11121431923937,-1.95122159937726,0.0082169492306411,0.0658040655424605,0.0098270348517419,9.80376450372175,0.706260303487648,0.0730651069242011,STOOP_DOWN
3.36,0.0204080860224884,0.0178841124370537,-0.0108988970109579,9.67624965952448,-0.591781599010796,-1.72507473108963,0.0058476766902569,0.0379172616217298,0.0016079869943184,9.44942207909734,1.05307891507768,-1.98731693818587,0.0166647624376755,0.070787394370581,0.0089071520865694,9.77854558600267,0.697625887427504,0.133337514865586,STOOP_DOWN
3.37,0.0122765912024174,0.0214795205114132,-0.0200631431729796,9.67215029479463,-0.580313662487862,-1.59671047842027,-0.0102707390504227,0.0249904792570116,-0.0006549042234242,9.53813102631952,1.01096263233965,-2.0575982635052,0.0215346703897901,0.0649926652670325,0.0109133998066009,9.77728497154484,0.709363569523005,0.107753059899275,STOOP_DOWN
3.38,0.0462629000134647,0.0368881402284443,-0.0168840438867328,9.60269363535339,-0.666272400172251,-1.77311101951391,-0.007161202891017,0.0133157817227926,-0.0084038716124762,9.56058077766126,0.953257037092361,-2.20711886985195,0.027091763451791,0.065979547936802,0.0079490137149602,9.75824403861193,0.669273114195932,0.154942815569337,STOOP_DOWN
3.39,0.0713313412220856,0.0372198219621325,-0.0138824446059025,9.65968735059119,-0.685342756372405,-1.77494124224352,0.0289995366537315,0.0073169038784807,-0.0108164416180403,9.55982798122131,0.900475976016383,-2.21726318383974,0.03543747334972,0.0713562641703332,0.0089951931827787,9.78726972483643,0.654091715907001,0.117534057358563,STOOP_DOWN
3.4,0.0686291012147278,0.0311166499294332,-0.0167007373775359,9.60369249192023,-0.551665516912936,-1.63804050646744,0.0565336399784064,0.0130953989273531,-0.0120652878649151,9.54164635332659,0.976211507572993,-2.09496513817382,0.036163015842257,0.0750797301884698,0.0106398062160193,9.78724532516433,0.653174153063501,0.124466079662003,STOOP_DOWN
3.41,0.0805076985017115,0.0292059505662752,-0.0138996483918759,9.6103281689391,-0.516557290202734,-1.69403291702141,0.0649295428547566,0.014404033150466,-0.0143273804358816,9.51527779646057,0.983499029055535,-2.07338757481588,0.030986786867297,0.082068225328555,0.0145278776288598,9.78722676641703,0.651985514258726,0.131937168714801,STOOP_DOWN
3.42,0.0524038817344413,0.0337592256322262,-0.0113402234602789,9.65463528247906,-0.524332063480271,-1.65061441199323,0.0746942395615333,0.0225857695195836,-0.0098743676382355,9.56735590646781,1.00379708054997,-2.01359678150564,0.0286491310451493,0.0839170278757837,0.0137491782285086,9.83519005548097,0.659496876476167,0.141687537461772,STOOP_DOWN
3.43,0.0284819008425229,0.0372105558310463,-0.0114273687504505,9.71606735272946,-0.521138970904104,-1.57884465415968,0.0718529255208873,0.0413480043185907,-0.0068378924815259,9.53281459579784,1.03071700686283,-1.97986238364404,0.0271587494444605,0.0860274536928489,0.0192260789430199,9.8377839248487,0.648466467902023,0.12750139467061,STOOP_DOWN
3.44,0.0215220300299198,0.0432922355182424,-0.0108977475075497,9.73257119024313,-0.555327603335083,-1.61370979706,0.0533893409306892,0.0248232278414125,-0.0043321705945843,9.48973317747883,1.0779000235881,-1.93541007903466,0.0268231927475824,0.0902817718751727,0.018527604801817,9.90608730093396,0.681973308327335,0.129081218261379,STOOP_DOWN
3.45,0.008469302749589,0.0414039535433274,-0.0166469555338018,9.69919870759922,-0.575464973472779,-1.66565152182366,0.0250368752877919,0.0245813817926534,-0.0089054095220223,9.5518147308357,1.04280376686755,-1.98566306675719,0.0389572392066479,0.093449419438811,0.0126792166090673,9.91298914770873,0.664684233196594,0.0387824619282382,STOOP_DOWN
3.46,0.0233941189568604,0.0441277877746861,-0.0140813600626305,9.59888395597984,-0.592479105884295,-1.76292444765068,-0.0033446209219291,0.0226438601977331,-0.0031870154180554,9.48166967929024,1.06400145782534,-2.08093556445017,0.04568906891805,0.104395929103086,0.0145980829084503,9.88707222094312,0.684118514753312,-0.0169530579448029,STOOP_DOWN
3.47,0.0183125821266997,0.0624945971150429,-0.0215890263750174,9.57995334727055,-0.659738835314668,-1.71959242330238,0.0048024283551173,0.018576593193031,-0.011036943758744,9.47815700924516,1.15554421026641,-2.0873489750877,0.0555342472535675,0.1216192860454,0.0081312379089037,9.83554171581365,0.696226816605015,-0.0179674577712068,STOOP_DOWN
3.48,0.0156422233636184,0.0659100116273612,-0.0190795226623714,9.55473263867777,-0.680256885235044,-1.68890703960505,0.0198764804779043,0.0289205327176875,-0.0065974660544122,9.48079972463342,1.17420624517063,-2.17475361483715,0.0630067477276033,0.128475345648867,0.0007120203690502,9.85685866287105,0.709693754158957,0.0172896124853461,STOOP_DOWN
3.49,0.045096861929707,0.0531560527524529,-0.0181172647067865,9.54845584532043,-0.718702994826185,-1.72710771360973,0.0122738645892982,0.0286711587763083,-0.0126243170892793,9.46170513665525,1.16280204791023,-2.22173586105155,0.065123829847475,0.14139494528665,0.003374314417475,9.85684130992854,0.709507442026717,0.0301353306831955,STOOP_DOWN
3.5,0.0708705445227143,0.0499112891101433,-0.0177878155891618,9.58979946568491,-0.702500320274094,-1.68839123927223,0.012621192659022,0.0308165845215771,-0.0135215005154241,9.53657041220991,1.16008840834759,-2.15131426163357,0.058088464255234,0.157186010083099,0.0076422875699343,9.88938874095656,0.717031921324875,0.119265982258494,STOOP_DOWN
