time,left_angular_velocity_x,left_angular_velocity_y,left_angular_velocity_z,left_linear_acceleration_x,left_linear_acceleration_y,left_linear_acceleration_z,right_angular_velocity_x,right_angular_velocity_y,right_angular_velocity_z,right_linear_acceleration_x,right_linear_acceleration_y,right_linear_acceleration_z,pelvis_angular_velocity_x,pelvis_angular_velocity_y,pelvis_angular_velocity_z,pelvis_linear_acceleration_x,pelvis_linear_acceleration_y,pelvis_linear_acceleration_z,label
0.01,0.0257932266676339,0.14846393866293,-0.0619303984908069,9.53467181086811,-0.991381605229714,-2.67024377120331,0.0053434536590407,0.160063021820448,0.0152870089991675,9.446800536052,1.14349440222161,-2.65653516283598,0.0185687520886515,0.202317331823464,0.0115441371888348,9.90603776183991,0.706075423402915,0.938122092078723,STOOP_DOWN
0.02,0.0362593973456826,0.152909597442431,-0.0606934740828469,9.59395872395584,-1.03339904258189,-2.54563820079027,0.0188100563715877,0.162252634327776,0.0176883106241197,9.44922084753422,1.26633610884921,-2.66455764403059,0.0115709719322676,0.220606035317748,0.0068856651262698,9.96870583687063,0.578275779856853,0.982431032617202,STOOP_DOWN
0.03,0.0414116597218822,0.150257480652771,-0.0598036247892743,9.48526762495852,-1.05810322642738,-2.59554548932622,0.0379904287076394,0.181268546866289,0.0196288830964846,9.51468184115563,1.31341331111994,-2.69564176058575,-0.0032406704517138,0.243405720469402,0.0020905208429091,10.0564037541985,0.507060641738402,1.06015281957762,STOOP_DOWN
0.04,0.0454627592112307,0.15501665778989,-0.0633071627004242,9.44083226164825,-1.01457604860891,-2.72387819085038,0.0308647542799113,0.181465926894496,0.0222397670887556,9.44537617525293,1.23558146594834,-2.61294101992482,-0.0020057566716146,0.264938841043908,-0.0093893863273966,10.0862700982888,0.541016264735381,1.15177566796241,STOOP_DOWN
0.05,0.0464418509518029,0.169485210227499,-0.0690098432317965,9.44381148163723,-0.957394261139086,-2.8471103328241,0.014460168393859,0.194546646822123,0.0285798323495624,9.42128063617811,1.12784563544437,-2.69357746534136,0.013248812383566,0.267366097398953,-0.0221354971732339,10.1091717275351,0.581342144032398,1.16415713569004,STOOP_DOWN
0.06,0.0463850380155426,0.191085074447115,-0.0839939967367154,9.48945504288075,-0.969011262337369,-2.92676509798622,0.0123840246885071,0.194031638400583,0.033176206905893,9.36121652312685,1.04374677159283,-2.64254468198702,0.0268077909533275,0.27738620988409,-0.0273003714666475,10.0906927815745,0.646831948588982,1.16704893533918,STOOP_DOWN
0.07,0.0490761039588916,0.215252420725261,-0.0950857930536821,9.47866405869522,-1.01680138865156,-2.82449562530285,0.0191446208858245,0.221093067981523,0.0352949426241086,9.40554446721725,0.96009381183459,-2.67065354401639,0.0416454513285972,0.290817305550161,-0.0367978269463582,9.99106197317402,0.688051293072189,1.20484787177179,STOOP_DOWN
0.08,0.0352044413380328,0.232487874934901,-0.101823280717156,9.46120598018717,-1.04339909815686,-2.70845494845689,0.0439694948827618,0.254121715452,0.0419327977536595,9.47806658281591,1.03638686816173,-2.68121941643288,0.0479125596273335,0.310396305297054,-0.0449568275441392,9.94653101700043,0.707922689595309,1.2013860443941,STOOP_DOWN
0.09,0.0388333158648441,0.239891575441605,-0.10943872238358,9.44099724693161,-1.04511658261588,-2.63379762192002,0.0586208177493202,0.278969423659342,0.045522209593997,9.55158703062119,1.11159149706339,-2.68896175012319,0.0409909783756809,0.347404034996101,-0.0536179391048126,9.9812608837183,0.71577934654354,1.31261425324857,STOOP_DOWN
0.1,0.0530257963113163,0.240452077338398,-0.109179464899538,9.47041069580793,-1.0171455510631,-2.6294427643738,0.0501191961917999,0.292312753154331,0.0455636730697912,9.66801451883804,1.28944665776226,-2.68323037307435,0.0333355912598335,0.384287966844711,-0.0516747699780871,10.1076401567064,0.786211676819599,1.43312135942707,STOOP_DOWN
0.11,0.068945819931121,0.250720024211547,-0.114282152518904,9.52874549101756,-1.06979804193388,-2.67152034170495,0.0448677294923629,0.30691088833101,0.0517185480484978,9.70860177673884,1.42126418634582,-2.76248475801171,0.0301963219006717,0.411155789686265,-0.0411770649158819,10.2690932020949,0.83702696916233,1.48803748399663,STOOP_DOWN
0.12,0.0756527775934753,0.269116025839806,-0.125329422717926,9.55967036796395,-1.08096352272116,-2.79925005570683,0.0282266787863392,0.313973350251454,0.0609025589464331,9.59206324742554,1.57994715149481,-2.76428113915764,0.0333407250154446,0.440924929540932,-0.0425261734249828,10.3007991626961,0.908702441274318,1.53339506013935,STOOP_DOWN
0.13,0.0987362254132172,0.295661482269696,-0.145167859770663,9.45140313913995,-1.1209298239202,-2.96124473616114,-0.0024132111134879,0.320168598981185,0.0654357316765553,9.4246878667316,1.62905150702904,-2.88887673199368,0.0426871526927674,0.484415939131189,-0.0277344971037448,10.2869133917344,0.9779930585624,1.3190765410113,STOOP_DOWN
0.14,0.107260707508042,0.323082771037446,-0.165019105127297,9.30347507699088,-1.22180887415872,-3.04129485990116,-0.0697246958248607,0.330540965389503,0.0836320967563692,9.23032341477795,1.58674449843348,-2.96769769343095,0.0307812114845041,0.526130467410882,-0.0252492097245407,10.0835082559781,0.965703150897894,1.20889073791195,STOOP_DOWN
0.15,0.108501591822448,0.336791051774864,-0.191851584088579,9.10883849378532,-1.29549054704288,-2.99113071132013,-0.132511220743546,0.324885668918134,0.0986093740250354,8.95424008646699,1.59138876025769,-2.95210709204543,-0.0087554488751187,0.566175620365673,-0.025842848707684,10.022001416879,0.925276436704378,0.857583728152301,STOOP_DOWN
0.16,0.122220253145599,0.33117181364946,-0.204397640314444,9.12275057249796,-1.43504304784029,-2.79341157600231,-0.182183993256164,0.325287554255813,0.113572465005014,8.96193614040738,1.5697817037457,-3.01021615798381,-0.0426359868962763,0.624722659982941,-0.0291890605538203,10.0176979751369,0.832898415353264,0.823285901260565,STOOP_DOWN
0.17,0.140445143738976,0.306171149783904,-0.201154329630745,9.15582384439646,-1.53148582038531,-2.65757538457694,-0.213461407324362,0.323480162622983,0.123974897060677,9.13737748572432,1.44374999650753,-3.01474930696371,-0.0678660230156823,0.655665491002719,-0.0260504019751388,10.0500007821983,0.763799432104412,1.20714115302503,STOOP_DOWN
0.18,0.133014817827372,0.271199474086586,-0.188223166073722,9.2966886259571,-1.44227868232604,-2.62145822035369,-0.21611332457468,0.336920541966627,0.129559447093659,9.32181221335901,1.37958987891208,-2.98974415073754,-0.0781103135476266,0.678613588143623,-0.0242663534554762,10.1334430501479,0.672617463532412,1.37045723100812,STOOP_DOWN
0.19,0.110627699190861,0.266795986127356,-0.161203509936623,9.40073059951251,-1.28215660448775,-2.68516465589099,-0.177887390913109,0.354997032095099,0.138198820674908,9.55749539444328,1.27053859824996,-2.88336537860122,-0.0640969647109346,0.722172552665113,-0.0214209710054966,10.2089030789412,0.607477172483597,1.60626340988928,STOOP_DOWN
0.2,0.0442337550183171,0.278260622127635,-0.143862450699885,9.42912534131101,-0.938677179317893,-2.81168140662372,-0.11498306415174,0.382851816289375,0.135049057762174,9.83108911079108,1.18852179380647,-2.76720308443679,-0.0486551309896178,0.769439061703626,-0.0214038372803939,10.3097376510235,0.572213065852719,1.81246981086979,STOOP_DOWN
0.21,-0.0490512169533074,0.287394594116308,-0.123064754541148,9.50413149716595,-0.438580615528925,-3.07707497328793,-0.0458836963348269,0.42648553360081,0.145528904016145,9.87700338903229,1.13455732162004,-2.56059686952043,-0.04560590784811,0.82276284929643,-0.0275314533586095,10.2946048375316,0.563815443700241,2.05639059114241,STOOP_DOWN
0.22,-0.136813306259252,0.322245522755114,-0.117948831415978,9.55306092220178,-0.0384310180081866,-3.28350525911584,0.0217577066952358,0.44129758124081,0.153354513739553,9.7932593135897,1.0469332921847,-2.3702535526439,-0.0285538142583129,0.873719961683347,-0.0306514929249942,10.2429303563781,0.558560729919663,2.14304589965346,STOOP_DOWN
0.23,-0.208352479992082,0.375064304456436,-0.122263584211785,9.54611092052033,0.109978795880838,-3.23273444217532,0.0492168194658585,0.459311121385953,0.161063602541406,9.83182553739342,0.982801034364715,-2.27198003498974,-0.0194806029749337,0.907721295614328,-0.0264271238284371,10.0499639575221,0.62318854856989,2.24234878468367,STOOP_DOWN
0.24,-0.287158880561717,0.412823115563604,-0.12288638852164,9.48039914806973,0.0726048507199424,-2.88863235068386,0.0745473600165606,0.50263649595102,0.161118714202543,9.85250551080914,0.818766207562547,-2.32512759283504,-0.0346510382733917,0.925350400155991,-0.0124592409542294,9.76744176533745,0.69752532942239,2.27278950987971,STOOP_DOWN
0.25,-0.394793676841572,0.431452662435726,-0.124835593696937,9.37764941965724,-0.089958075035039,-2.55630232876504,0.116397578592192,0.552271958580416,0.167457192508998,9.75939470801258,0.767752886170004,-2.5459364534845,-0.080264311760766,0.907255097194185,-0.0055162725991985,9.67210395451516,0.768970135314871,2.11346060598786,STOOP_DOWN
0.26,-0.509194104335393,0.439870922896574,-0.117212069903887,9.30819317821114,-0.188823508311465,-2.41434837129589,0.153175504625433,0.582997675729698,0.173609690977672,9.54290907996509,0.784389506872725,-2.71040136396591,-0.104389364108027,0.898105566915046,-0.0031569799510211,9.74121582372593,0.972784114518941,1.73877614177449,STOOP_DOWN
0.27,-0.612463153895761,0.455202834390433,-0.10450021402456,9.29204926026116,-0.298600039799894,-2.42162428671527,0.182311669641908,0.598834174507885,0.174740644734526,9.28770706904314,0.855466686969594,-2.7333867333429,-0.113829484379179,0.933696133752,-0.0025788159688506,9.73476799850547,1.11461152774101,1.48432827065776,STOOP_DOWN
0.28,-0.672946500570127,0.492115737876668,-0.102281996586292,9.3611368956199,-0.382081001854563,-2.3588614788684,0.21866334078919,0.620746846842603,0.17274645757768,9.147510488279,0.895570515068718,-2.59872693690072,-0.109613055698729,1.00688609721874,0.006463326567653,9.7036099042387,1.2209690993306,1.48263363320447,STOOP_DOWN
0.29,-0.714005640057933,0.535501603907569,-0.0992529647576261,9.49436353070235,-0.28525004385559,-2.24425888884339,0.254372810816886,0.631577844328872,0.160925870296702,9.15487422852061,1.05704497031046,-2.56454637927395,-0.146774289054238,1.11772656675583,0.0069646933973802,9.74978969752665,1.19934432655851,1.92360054945897,STOOP_DOWN
0.3,-0.732193470977019,0.583169742085754,-0.0908676765286591,9.68770124786566,-0.160265967027059,-2.07729890251432,0.328948382571504,0.639206353299102,0.144260373564379,9.28857039426598,1.09936105726662,-2.68478937596487,-0.179354007898366,1.22074146055048,0.0010165838335318,9.76308053700172,1.03772783999702,2.3722921109326,STOOP_DOWN
0.31,-0.738558237748685,0.611147204009172,-0.0906051153143217,9.90581489041404,-0.108371715247784,-1.91789119834314,0.426181305910875,0.648747695716637,0.133273970273003,9.37104310790697,0.847261989755352,-2.68905966021544,-0.19528875622494,1.26700050135434,-0.0139316834533999,9.7402437318704,0.843345356326613,2.4899582300005,STOOP_DOWN
0.32,-0.775578560186261,0.639733099474448,-0.0949992111351023,10.0340587548822,-0.281340557257661,-1.60463669333269,0.54421767898058,0.665245427661055,0.124440277363538,9.50170524534691,0.682177356538112,-2.51963747425959,-0.199413658058256,1.32485842637244,-0.0215584313473522,9.79140005886975,0.691588314585531,2.77219913061001,STOOP_DOWN
0.33,-0.825342492933821,0.664287291805981,-0.0933447565102727,10.0204029917532,-0.35809091583649,-1.40185154782876,0.695636827462095,0.689018534299502,0.121565809865664,9.78629362796118,0.570743334568189,-2.25723894598731,-0.224502440634043,1.3894494674711,-0.0209938302590169,9.75281434915468,0.641557739848262,2.97719717510343,STOOP_DOWN
0.34,-0.8291697180238,0.665969922754713,-0.089289133086763,10.0189769775871,-0.468605132765524,-1.33558135615994,0.836133972053,0.720607538937279,0.100071035524565,10.3190903865354,0.731543213880204,-1.81290591803136,-0.247327072142973,1.44997512103733,-0.0061120135001794,9.55420333072343,0.730304444188401,2.72203615158093,STOOP_DOWN
0.35,-0.761837170154128,0.683162286513556,-0.103588510043584,9.89906037744522,-0.476392132967345,-1.46801659321552,0.905135838046104,0.732944829658393,0.0638110856144815,10.63443315541,1.09519231517714,-1.49861204561126,-0.275811995378247,1.47807752768512,0.0105234771131137,9.51798560380306,0.801771815553618,2.32501930918813,STOOP_DOWN
0.36,-0.635488932348095,0.714986901437219,-0.139905090734494,9.71407131569356,-0.27044743892926,-1.49043269576816,0.881518449303814,0.762457657737851,0.0577162219977032,10.4483580528188,1.54357519113224,-1.32207650338799,-0.302738335743814,1.51324574552568,0.0302003382352997,9.44882132602916,0.872067497986636,2.08062273575265,STOOP_DOWN
0.37,-0.502700107248885,0.773093713525418,-0.172082504251054,9.69393463709233,-0.099116406726024,-1.37975407201493,0.785372724145526,0.757724047250532,0.0746355298260545,9.82044275246753,1.57540535267307,-1.23944214199384,-0.294510368224999,1.58825243071793,0.0212706615110902,9.25315086372598,0.837161514188382,2.0838803201205,STOOP_DOWN
0.38,-0.398069094297135,0.824742916171703,-0.199620039465785,9.69505646429023,-0.0800781147850704,-1.15864128060382,0.597146799978718,0.694974901944449,0.0893815971406502,9.1607739664098,1.20321844688321,-1.17049260019744,-0.258519491117575,1.63152182044999,0.0105328112528303,8.95703618005381,0.665734014581738,2.513421121491,STOOP_DOWN
0.39,-0.358556247780438,0.856042709400462,-0.217029871713659,9.8802273605479,-0.348698405757136,-0.884902920296483,0.39815333928478,0.628158245922061,0.099748364729864,8.92774042571785,0.884614338681562,-1.22131107357443,-0.208835028932458,1.63856765155355,0.0027886945202392,9.02304076283966,0.415911489377529,2.81377023666029,STOOP_DOWN
0.4,-0.371859706988702,0.86451337736558,-0.229981545632701,9.89516838591824,-0.637594671762834,-0.673794495614635,0.261418680772235,0.608892600922503,0.117494029501161,8.97521233079612,0.696068018307829,-1.16079374457429,-0.169485758477731,1.67656248768491,-0.0080121874445476,9.09599416153325,0.261902844974637,2.97838610329178,STOOP_DOWN
0.41,-0.440467005036162,0.865158045111849,-0.211550316434471,9.84729028716405,-0.613422370454194,-0.696779535504952,0.227986869144414,0.62348378996858,0.137947064875995,9.03820414663269,0.617513687511102,-1.003676496863,-0.15276260045042,1.71991337897172,-0.0078850581113209,9.04127759203431,0.166307868932408,3.41331155893088,STOOP_DOWN
0.42,-0.506753867678297,0.870205708215754,-0.196302306323007,9.93904073427277,-0.321728333403997,-0.656227523549535,0.276239067790103,0.644911149119504,0.153951541967497,9.1536064765385,0.34532618186251,-0.841718855457363,-0.135018802553083,1.74326028821568,0.0008984212493261,8.99196049697196,0.0700126578735298,3.66324983523007,STOOP_DOWN
0.43,-0.519986277813284,0.863496112709984,-0.197595405605676,9.82915018786226,-0.141068027314296,-0.708983492818395,0.357776941446615,0.692109461700668,0.155449706049688,9.50317414163487,0.0817559788943867,-0.521258041946814,-0.0545137793235911,1.78624260173968,0.0084091800005154,8.81134331871347,0.173404443212047,3.28952493890187,STOOP_DOWN
0.44,-0.46881383899924,0.797732778131533,-0.223734056536756,9.42706493082954,0.0949922926288986,-0.753434569250693,0.417502727622847,0.771818101588239,0.146644962447375,9.88244020655754,0.0205195796144583,-0.191372033780245,0.0215113127105967,1.8257640975897,0.0113264892899691,8.59804517942978,0.425363326693798,3.23211986117002,STOOP_DOWN
0.45,-0.400270605535432,0.732311691432189,-0.239380220489298,9.14222645333992,0.499946181383407,-0.763864485274712,0.448615394688335,0.810521001809431,0.11905891633011,10.2474027243198,0.27422213798714,0.110502493462456,0.022747182522216,1.87719674519729,0.0150335471156436,8.54145599458368,0.700900397508403,2.83541095065772,STOOP_DOWN
0.46,-0.359084094937269,0.722073608920694,-0.245234926566341,9.26100716570494,0.813365894064939,-0.682264484942942,0.459385222007549,0.838586566765521,0.106847306826083,10.4986616232242,0.26328793092699,0.425751814111603,0.0021065725348932,1.93027653718183,0.0060479760611991,8.30048025833079,0.954407082880712,2.78461084769894,STOOP_DOWN
0.47,-0.356176236266304,0.746518159947294,-0.241105057733765,9.4335735678065,0.82533685630409,-0.540805953672161,0.446891681991367,0.850841538215882,0.111232531299547,10.2445609083331,0.136849061870644,0.600523737617483,-0.0212582039846014,1.93988782596688,-0.0145716897884109,8.24055115709221,1.07795437925427,2.83728918729275,STOOP_DOWN
0.48,-0.398024598476815,0.762965589317534,-0.222026136143906,9.86971266152072,0.555531159264742,-0.330469865444145,0.436911913971589,0.82386299470372,0.133362481478026,9.876302062587,-0.207349605990946,0.536896825156241,0.0026748130481456,1.96873130000652,-0.0452361494453513,8.36338935794104,1.00729988084425,3.38130151152974,STOOP_DOWN
0.49,-0.493450723854352,0.788853350897314,-0.177220828396189,10.3974666502483,0.0342980590898158,-0.199912484875945,0.446390412517406,0.800230675396769,0.142393638411175,9.46110478577775,-0.491601810327063,0.359102618507733,0.0740377862802261,1.97870871581029,-0.0756249977577765,8.18226796686778,0.786839064245481,4.04421119689979,STOOP_DOWN
0.5,-0.565213482056279,0.826967162731865,-0.148867428561233,10.4193444458098,-0.857366829925321,-0.13517252453913,0.497960333122737,0.743081965837211,0.138598808152523,9.09397811603959,-0.470985572244069,0.0741677269526878,0.0764127445503237,1.9560092260337,-0.0940626108237136,8.06435363096795,0.761488696579065,4.25680679026218,STOOP_DOWN
0.51,-0.553059201071355,0.838391741277782,-0.147911007027777,9.70383984178869,-1.41671479210955,0.0194290049274976,0.553520510946141,0.692889371513691,0.126189298402725,8.90178732413308,-0.303379303629717,-0.113087868082641,0.0204953267104745,1.97988123561879,-0.0939355304823817,8.04959527974169,0.682166488789401,4.55283681118037,STOOP_DOWN
0.52,-0.511747899390725,0.790292978221883,-0.162452776920053,9.11021775169511,-1.06764697148129,0.363730812425378,0.616585359941194,0.657998302924804,0.0962012945186,8.80964697672077,-0.200023179522401,-0.145680847217528,-0.0566537016098761,1.9785114136598,-0.0850631945436279,7.92233697198186,0.411887905131555,4.68053151491024,STOOP_DOWN
0.53,-0.460450977173368,0.717296056770231,-0.180319701781149,8.91427955512239,-0.145437712549187,0.592005889552598,0.662313004040166,0.66850480291011,0.0789951446838018,8.98281915665545,-0.207591753956219,-0.0259968500774364,-0.1451279178177,1.96908634676392,-0.0908305002150308,8.02260658551496,0.254496348221498,4.62806714949873,STOOP_DOWN
0.54,-0.37683631539067,0.643999958946625,-0.209844178242227,9.11079450863049,0.987031319861532,0.705128546088776,0.663168805061255,0.724566581137774,0.0543753421474995,9.63235538416937,-0.263511194735456,0.237207635845703,-0.181517977794301,1.98982033137754,-0.0895405539191587,8.08642740207609,0.240571284896965,4.30594033853743,STOOP_DOWN
0.55,-0.290533506948875,0.579516170761476,-0.234004259409808,9.44155185217905,1.42472847999902,0.686661224680223,0.664157703658737,0.795625939898908,0.0326711320577852,10.1867317877075,-0.0025782599107793,0.53185181194487,-0.169714327388273,1.99998217712633,-0.0947944745306945,7.90133436540559,0.384505643370978,4.05305981194687,STOOP_DOWN
0.56,-0.254219202960149,0.5446190524686,-0.247363883170054,9.6818067747722,1.23184313585722,0.800633175617734,0.661344305681143,0.801388862786908,0.0057411967130549,10.290404582613,0.496836490656799,0.849853352288013,-0.0914220397402558,2.00392703855095,-0.108144984480921,7.66598812768622,0.613734375833884,4.25940533312977,STOOP_DOWN
0.57,-0.250513892952202,0.570162873958759,-0.240253739400375,9.9928649990719,0.893159289498132,0.997801929010135,0.601126038538429,0.778330389002009,-0.013911755855168,10.1390908998688,0.748768564154108,1.16918643416479,0.0014174420951829,2.00665108352326,-0.140355058418212,7.36611884878211,0.761266605127079,4.74245266453824,STOOP_DOWN
0.58,-0.251164719763088,0.621842811552234,-0.204846149384733,10.2901681421918,0.548498956217827,1.29096195705729,0.486674945673559,0.723649023898162,-0.0111435190433622,9.97809478399999,0.984704073947961,1.24413945291062,0.0999551775492618,2.0276240689452,-0.169431858472578,7.2623058753791,0.74870665777839,5.095071856968,STOOP_DOWN
0.59,-0.263866136535562,0.644279735938763,-0.14626909863062,10.5736428985556,0.0716010591374377,1.41613754839126,0.333735962943114,0.674580731253778,0.0225838981822086,9.67645482260795,1.11895891833814,1.19267215869036,0.136101173147763,2.01285267538339,-0.183066008877307,7.18563739440836,0.660794712175002,5.21018617824379,STOOP_DOWN
0.6,-0.303750921665288,0.65662305622552,-0.0924077504194938,10.4688513905009,-0.552534491622173,1.44795016201618,0.259580575243669,0.61033287127372,0.0435997375837144,9.26985706032454,0.949813265307813,1.01040875161126,0.147633926480805,2.023320288957,-0.190013408555774,7.05992283633614,0.534571056021991,5.40319634814206,STOOP_DOWN
0.61,-0.349477207168772,0.667327678843113,-0.0721314388290528,9.97563732486711,-1.04202858839084,1.51842450813903,0.28098647904972,0.543250967395581,0.0484932589874574,9.03904655802742,0.703759930455052,0.968349724696784,0.115970157523157,2.02736207876922,-0.168202468177652,6.95100759773408,0.408104338822485,5.50884799921134,STOOP_DOWN
0.62,-0.367504695504539,0.594572177568196,-0.0726454322082606,9.44926290726291,-1.51751294505953,1.51789349614379,0.276689258050262,0.512780051602952,0.0495827339512137,9.17310852080819,0.38792502530494,1.06876693282249,-0.0032840506698344,2.01351776566644,-0.126780477329003,6.86514829220362,0.40441523585113,5.78869453543241,STOOP_DOWN
0.63,-0.274102604361261,0.49614497929862,-0.0939533523516328,9.26209886494954,-1.63085727714184,1.49149684463923,0.262375147230976,0.508523465123256,0.0550970130159275,9.40705255500314,0.389303213325089,1.1685722513531,-0.113246206486948,2.00357303818933,-0.0885321197479266,6.75165565606273,0.570060059993337,5.99919236514581,STOOP_DOWN
0.64,-0.0492510506675694,0.434321831859478,-0.135310825005721,9.40062764292655,-1.10818857848154,1.45373244805054,0.22791431776153,0.508377650272675,0.0612487176439174,9.73643409514227,0.58710190273865,1.56595601966334,-0.15320167215446,1.99901523684063,-0.0478504287749855,6.72274106667054,0.673346687298888,6.17878387978003,STOOP_DOWN
0.65,0.200115105285284,0.434876654861061,-0.191983138960578,9.70052880282297,-0.394694425493479,1.4800095898137,0.122621584914001,0.519094966318182,0.0736095223394093,10.0084650674852,0.96295031008233,1.98346032367886,-0.164769056244588,1.9819568583072,-0.03218039364961,6.68025499554861,0.946426506610542,6.41552769618229,STOOP_DOWN
0.66,0.402979362808553,0.460427317237282,-0.241674201248198,9.96738209082873,0.30843974535214,1.25496918654017,0.0190456339260558,0.536124183775117,0.091250313315719,10.1025859047816,1.0960207187836,2.34248143679139,-0.111076188845034,1.97543103328561,-0.0543318403131547,6.48735619157379,1.27629626560279,6.57987756685838,STOOP_DOWN
0.67,0.524500716976151,0.430621250578508,-0.268482369849992,9.9318897550784,0.761125866927608,1.16470681380231,-0.0377777452315972,0.555687412453353,0.0874860966358649,10.093720285195,1.0429929053215,2.48829157279381,-0.0002802549552207,1.98325493450135,-0.102813558487697,6.25018146664542,1.41451496860356,6.79294987426943,STOOP_DOWN
0.68,0.529856563844113,0.386807808298304,-0.267994820096139,9.54656324628345,1.17323677791517,1.24670374111576,-0.0596933583149002,0.566457353648382,0.0808432695435267,9.9465210736053,1.00327892971027,2.62019295827603,0.103887040516255,1.97078446876974,-0.155766655644669,6.06346792438523,1.3246964311834,7.06820502366271,STOOP_DOWN
0.69,0.442441328667243,0.386132714099033,-0.228129170948963,9.17725276566596,1.44646934173828,1.43669341521918,-0.116158838237939,0.616863095261868,0.0671904200162808,10.1498678216558,0.921223834571132,2.69266641295608,0.156735227289657,1.95063919451866,-0.195354510272582,5.84619668813174,1.10133161502846,7.25843539015214,STOOP_DOWN
0.7,0.295841522547713,0.400338675375686,-0.189448778517411,9.16100465475232,1.10434207873377,1.90163820892129,-0.139379263882196,0.6097557515593,0.0674789013886702,9.90152139094606,0.595875741990573,2.4022524788859,0.166048571415145,1.90059292804035,-0.202402965089409,5.63842616379522,0.826480344131304,7.40098933820075,STOOP_DOWN
0.71,0.127562798284482,0.423516939674894,-0.155397746164347,9.61003364422604,0.702336598102415,2.26834142418635,-0.157472487432557,0.543523896131896,0.0876767015338234,9.50046935827697,0.176805238557608,2.02748901028622,0.0688330669602682,1.84388004006236,-0.183150063268641,5.46789745314571,0.565881415564338,7.31364893694141,STOOP_DOWN
0.72,0.0110863457528692,0.440861082986794,-0.128661023964896,10.147044857006,0.427100992572907,2.28761655665911,-0.158683236037631,0.507331017513646,0.116819219720993,9.24186547705075,-0.122446650535096,1.87885250054967,-0.0330559154047441,1.83385775317245,-0.161272485278362,5.27071586535201,0.384211262249862,7.56873408031614,STOOP_DOWN
0.73,-0.0003422141043947,0.461298507629652,-0.117613057339925,10.1505057071655,0.559296131971393,2.27525897854083,-0.156536344398767,0.510955083362599,0.115784287852355,9.27602870937568,-0.138152311251971,1.98419884527404,-0.0495754113739084,1.8251763612518,-0.135760814375388,5.10356272487129,0.408893210732442,7.56614898426375,STOOP_DOWN
0.74,0.10518610439959,0.441565845059966,-0.113678031095011,9.86306648117842,0.73476103177042,2.16538371232915,-0.16679956795456,0.544844332890368,0.0906497202085863,9.52285995294398,0.0646320296789868,2.3462235428555,-0.0321395257629111,1.79317386261583,-0.115996404719164,5.00975731955958,0.535785028577258,7.6529918072366,STOOP_DOWN
0.75,0.245909739511246,0.357963684631967,-0.122051443168933,9.32956052980746,0.586788324286095,2.13570100797223,-0.217424919723613,0.585662257350627,0.0535171996550231,9.71015955256005,0.179279856314976,2.78287320244104,-0.0339799974221464,1.78511464956921,-0.109005916764082,4.75485426242494,0.843427242494511,8.00053042513175,STOOP_DOWN
0.76,0.324270490973122,0.284590617160363,-0.135926005106464,9.23285610100408,0.448923798315858,1.91515633070222,-0.274823363843354,0.572266002878547,0.0152466192507747,9.79588168982039,0.145827725125607,2.95569847745653,-0.0043015109673259,1.77729391351429,-0.120761926438229,4.36089905906658,1.08297774312569,8.16923766349816,STOOP_DOWN
0.77,0.309270672794812,0.317177728835554,-0.146397018360246,9.51552889686517,0.661678284599592,1.48516513562669,-0.322102320037956,0.514265248889832,0.0038026302763581,9.7731327399985,0.0962886038642632,3.02229354459575,0.0228014027182405,1.71269631475294,-0.138290751132126,4.15512219368939,1.20545619485122,8.42351738551565,STOOP_DOWN
0.78,0.263644393862559,0.396835475271363,-0.14626501421661,9.3784803207276,1.01837131173888,2.0121685203945,-0.306044578217482,0.474660359037701,0.0386279406061175,9.73468117058329,-0.0239581113228471,2.72276887590495,0.0687409990400099,1.69966279823168,-0.150520937877618,4.06938967851227,1.21530382063455,8.70808653418556,STOOP_DOWN
0.79,0.247716174188656,0.413468080135661,-0.142807468089403,9.37941869248316,1.32945572358532,2.32202246471587,-0.175479897314712,0.472508775841126,0.0659150959505663,9.71511487566362,-0.181866004966928,2.30808682188425,0.108390188912359,1.66443057615303,-0.148849375959057,3.97598839475566,1.05584248002412,8.83155372921637,STOOP_DOWN
0.8,0.216666569521209,0.402295577206219,-0.134602143221736,9.39759086412888,1.30961190676459,2.68657928210041,-0.0090292050036616,0.492431670417324,0.0805792886234187,9.46220015236581,-0.373776542815137,2.40451905077719,0.0908278144841524,1.59969292397739,-0.136776155512033,3.82848887335174,0.782122102815951,8.58275008214139,STOOP_DOWN
0.81,0.167923976355309,0.395087275510569,-0.14403152744206,9.43856993202993,0.675798823274353,3.00595661088179,0.0640700380003075,0.562403837122895,0.0757190008392874,9.51473360935043,-0.420052791983766,2.74351729016838,0.065810734317133,1.56031709642016,-0.13811550175494,3.5980776055433,0.692453462562016,8.58123844920325,STOOP_DOWN
0.82,0.167923976355309,0.395087275510569,-0.14403152744206,9.43856993202993,0.675798823274353,3.00595661088179,0.0410536632175941,0.596335186139576,0.0318018252827903,9.67508866541477,-0.0698995595181973,2.73592758482561,0.0352870907351758,1.51669138704367,-0.125985744336489,3.44954629340591,0.65337151736549,8.69856333163228,STOOP_DOWN
0.83,0.159296407291554,0.379788767636771,-0.156109398983486,9.52571113869538,0.173154568648133,3.05954886127829,0.0259274247522859,0.527991091501963,-0.0168989919274413,9.717351523643,0.422643566312723,2.24617539381577,-0.016302117107292,1.48573583743756,-0.104859874120928,3.28100433835137,0.71231413026581,8.87567446015259,STOOP_DOWN
0.84,0.209443013423931,0.377905418114374,-0.136211951896072,9.92808190241289,0.0949938267459704,2.89843966782006,-0.0015925257045292,0.473562622503416,-0.0275442398678449,9.69166367170676,0.584844757295292,1.84271034062369,-0.0198391766300755,1.44287265795615,-0.0822047354691506,3.17738726606759,0.829525394204193,8.89567628301195,STOOP_DOWN
0.85,0.296586886433085,0.388732846312258,-0.100953868889871,10.0971368286419,0.174313983315374,2.26300336875945,-0.0606291226570511,0.491458969648065,-0.0080449610354045,9.68686771556971,0.337161426675143,1.81600641647861,-0.0227352315534911,1.38655324410475,-0.0619731075780755,3.05197750980751,0.96458424686967,9.10101959448528,STOOP_DOWN
0.86,0.374559844431163,0.390554067362894,-0.0823311538154843,9.87371121200071,0.294111113654502,1.88015896379288,-0.0735260406511334,0.519206362110637,0.0002798507121063,9.74437821589356,0.152728649207265,2.03600664899854,-0.0520282582408325,1.34798375980192,-0.0425214346343151,3.00944718282954,1.12398353806446,9.21510846547793,STOOP_DOWN
0.87,0.459200839611451,0.353854769197164,-0.0743275976898137,9.4380654590823,0.521798556703164,1.65184716049133,-0.0401210858478282,0.514742716712701,0.0051415364588612,9.57649081273793,0.0085246164376117,2.16099201595938,-0.0511427632917302,1.29910249800284,-0.0371653395364564,2.88996723056528,1.11656243936772,9.19510858100295,STOOP_DOWN
0.88,0.494792430745674,0.339869530333893,-0.0816229043249165,9.1123034664453,1.36738803145142,1.52174997619816,-0.0088334375851372,0.466588886203059,0.0135724077801898,9.4638036968267,-0.0141468316562623,2.17520913545268,-0.0411417433521876,1.26020353392294,-0.031326234491567,2.71335310157641,1.02011578140263,9.30397912251671,STOOP_DOWN
0.89,0.493244921247006,0.341492993759663,-0.0870759690163946,8.9283858963761,2.18615744730546,1.08151641633777,0.0079353557634859,0.440773896167667,0.0311794073010622,9.36109788420249,0.0266829289769657,1.8647697623774,-0.0557713331621313,1.23199014144416,-0.0305952643261716,2.68953247574445,0.857054508537951,9.51527840342904,STOOP_DOWN
0.9,0.452106799657129,0.32702846263938,-0.106066303334908,8.81845266381301,2.58610278608621,1.11996298992079,0.0086067287221874,0.410773839344086,0.0490743742248831,9.1841600213423,-0.141838377757853,1.70403516438507,-0.0814961990884919,1.20207916970536,-0.0312331190451725,2.56121124295573,0.676444191655043,9.67810002035859,STOOP_DOWN
0.91,0.357007658170599,0.302634701856886,-0.134722146510244,8.74855126563114,2.81354037954772,1.22075035489844,0.025044994055082,0.375226111522845,0.0494837080737909,9.22470626751455,-0.332150648104707,1.74931813969686,-0.115768653393896,1.15125535754912,-0.04434752354059,2.47540581934664,0.637080632356763,9.74318400243993,STOOP_DOWN
0.92,0.217425607036064,0.249181783975144,-0.151342819990897,9.26639217739344,2.8185606094553,1.3096291363472,0.0259902597138493,0.401866895419693,0.0543100070437585,9.49203561656437,-0.126311763866255,1.71365914958065,-0.134709812006153,1.13445504517547,-0.0600918616609097,2.45427952217162,0.636876977290924,9.96230449352362,STOOP_DOWN
0.93,0.105267961361434,0.228965491301895,-0.145119842296258,9.74473075533286,2.59695250565113,1.24755536781327,0.0291258428088668,0.426414305233194,0.0639720349052725,9.65653466400478,0.30708931203184,1.77564914534104,-0.123018335506863,1.0979077694718,-0.0713959160035509,2.328930346905,0.811560829108092,9.926830203343,STOOP
0.94,0.01708048089441,0.194670810220203,-0.136104246599286,9.87313401092596,2.20111780682168,1.08372213524431,-0.0012953555714569,0.408673312676439,0.0667327390738529,9.5971109364054,0.768894254498969,1.8899367999681,-0.107213667086567,1.05467852222561,-0.0783237407159582,2.32915025898656,1.04026943138274,9.79194186140681,STOOP
0.95,-0.0670645518194777,0.148438115682461,-0.106074892531237,9.88986025261293,1.7605820954257,1.07501363455966,-0.0579874967177607,0.345931685260789,0.0543428679609322,9.43732496971652,0.953866707511056,1.91359832114797,-0.0780752390191913,1.02319567234346,-0.0850092395268973,2.27252522292674,1.13366073304055,9.86808363204627,STOOP
0.96,-0.165373366388881,0.149431400589326,-0.0617730051194147,9.99461757042688,1.37196575615925,1.22739423472438,-0.152979626747186,0.268269220752079,0.0319433427964502,9.44549848584029,0.727267838219837,2.06594043679474,-0.0561276567037497,0.999321006002254,-0.0791195792498724,2.19608130628127,1.13337860536557,9.97576951833022,STOOP
0.97,-0.25246893812854,0.18347694182724,-0.0373561624532833,10.2117381834381,1.11808954062133,1.30005142867569,-0.1944239861267,0.193756554839303,0.0178193526201991,9.63111545477339,0.543926753484186,1.82550419006365,-0.0485285673298789,0.985167505762992,-0.0706950370206938,2.05253880941774,0.960921893742484,10.1313421914589,STOOP
0.98,-0.279635073531735,0.190946389176929,-0.0329314698904446,10.0649187504912,0.817492164264589,1.52276310598881,-0.141790576234029,0.146948620719048,0.0165681629115534,9.71562954174526,0.216518935175449,1.42387313884062,-0.0373605595023024,0.96701381162717,-0.0491206926058376,2.00222326849344,0.725596651653458,10.213523455608,STOOP
0.99,-0.271666085170158,0.130613039797714,-0.0325379443694045,9.68663997130769,0.546401615377684,1.63553300348046,-0.0777795663554519,0.131454977571875,0.0124252411122966,9.96087227234838,-0.0235934157662042,1.41164621003765,-0.0288195563061068,0.932139744770417,-0.0323925808731943,1.8269804075242,0.438733326207813,10.1622157619755,STOOP
1.0,-0.237038523157487,0.0826702785101788,-0.0240173121973413,9.44166764963149,0.181913366049301,1.80116402547876,-0.0245963987862005,0.12809109279017,0.010887194928727,10.0132692467963,0.181394365870662,1.45199501553774,-0.0534286767416247,0.880617916485135,-0.0195462342407282,1.68241094682905,0.313723365556757,10.2257111828687,STOOP
1.01,-0.12957531897882,0.0581795683207941,-0.0086026403250187,9.45444575504029,0.0406005937629167,1.70173242216467,0.0470065639310355,0.0897640370400398,0.0050288586487738,9.93510593386772,0.128396166758642,1.18392123005085,-0.0983744568912496,0.839389365268583,-0.0216985710185547,1.59104399870315,0.342162190492616,10.1762610336937,STOOP
1.02,0.0273583981256841,0.0603522992164901,0.0077225992631758,9.52548353813734,0.0015368135712632,1.44233303392175,0.115496980992502,0.0488812428313713,0.0018705464205839,9.40683135933762,0.156060288256299,1.22536086148644,-0.142764195842674,0.78680470542837,-0.0213228440022491,1.47717477334262,0.511492035486136,10.1525856757078,STOOP
1.03,0.0979032440359345,0.0423809007252466,-0.0019244436133288,9.39912996911806,0.170991596911051,1.32104870982033,0.104835109370927,-0.0025961615650913,0.008937532810795,9.02437853291463,0.14288558191957,1.37308071155639,-0.15549153778222,0.75003479659825,-0.0275575391470055,1.38431873218754,0.626964560457465,10.1544098928908,STOOP
1.04,0.141511618158951,0.0254470906214951,-0.0140546622220637,9.39492678778686,0.488480247463655,1.38045647896757,0.0890486294126787,-0.0305749119456787,0.0160530011358998,8.88082635460336,0.113326341924808,1.42505800439557,-0.134292705865967,0.716848137930988,-0.0295456856295596,1.27784548236959,0.818081645907465,10.0861230370332,STOOP
1.05,0.187857427406503,0.0285895850812411,-0.0279591888195706,9.47476367391862,0.74043799665118,1.50482633667828,0.0646655600145803,-0.0281123655375531,0.0337176700503427,8.86069135322708,0.145551382241345,1.71879679531188,-0.116812801014952,0.686343107014193,-0.0311324929987325,1.09155701266163,0.955710284331177,10.0713349666602,STOOP
1.06,0.198937964412362,0.0307627063118738,-0.0350030231244351,9.50079299605372,0.931534913702458,1.65916820569662,0.0415331342083791,-0.0253541107108364,0.050491843849443,9.08146015299771,0.279880807453358,2.17051651123298,-0.123703858398931,0.660673831544411,-0.0286710449665255,0.95367908749174,0.98878573928813,10.0500704693027,STOOP
1.07,0.159546710461201,0.0222216942153613,-0.0296964910021419,9.61139546352633,1.13971402391057,1.72298554056696,0.0007455651692895,-0.0237011972802399,0.0577910320233263,9.51893051675378,0.446182421080503,2.43230579935998,-0.138479956134514,0.623810799533982,-0.0209259841180815,0.880828211163419,0.955792612012982,10.0458822914893,STOOP
1.08,0.126065494684228,0.0319084350121562,-0.0226127280352841,9.96227569162871,1.28480438631032,1.90270321177988,-0.0203189150427026,-0.0058501244213255,0.059956246286487,9.87498985828332,0.474504133946205,2.73497717087092,-0.128670491530207,0.598058318315337,-0.0150589121376776,0.663305775581015,0.797640886951523,9.99787769602152,STOOP
1.09,0.0546617233908601,0.0541447395677807,-7.88612634883e-05,10.1853942496751,1.1817951006268,2.07838211623168,-0.025522411817417,0.0033091851712139,0.0574217762906174,10.056209058564,0.286991599737775,3.05334901318764,-0.102626568158364,0.575533498162342,-0.0036730787865749,0.6198085417288,0.771428707448987,9.96591911015633,STOOP
1.1,-0.0387181093960433,0.0563057207139331,0.0045981398643028,10.1594894444041,0.877925017482964,2.15764020210926,-0.0330915862212534,0.0029768179709752,0.042975798757366,10.0399481901838,0.201587935060851,3.07767791399762,-0.0945862856439377,0.545285380860358,0.0037938178995633,0.524286413152076,0.624987200928139,9.97543561899103,STOOP
1.11,-0.095203974767593,0.0450567075762997,0.0069052975394453,9.86596203135863,0.830128430098595,2.29701568004007,-0.0123024374381264,0.0065222020639178,0.0321831506174215,9.77207944601452,0.164756374071302,2.98709735435255,-0.0772561098628483,0.517626789747318,0.0057254301665397,0.463240005729468,0.584182182018372,9.98809117892537,STOOP
1.12,-0.091621614836089,0.0235833645950244,0.0199375234670551,9.63305213954126,0.796042295331888,2.24164703126517,0.0445078680026131,0.0127383000389721,0.0241098168999241,9.53845983236167,0.104902381320012,2.68695685165867,-0.0708268101484922,0.476877201935641,0.0118811121389453,0.382356054315982,0.551393087286275,10.0036591654425,STOOP
1.13,-0.0189202075546714,0.0380417302452333,0.0461241397298368,9.45772841278946,0.654250363743761,2.08679177277614,0.079898021388636,0.007289382283592,0.0095146093722809,9.29767283319448,0.20345065917881,2.35251074355285,-0.0751972101585971,0.436083403384462,0.0146761691137525,0.314070686140299,0.563148306123596,9.98802885921299,STOOP
1.14,0.0530967350104773,0.0648000056919278,0.0588947556104054,9.31726510876516,0.492708499170544,1.89634749120699,0.0866258750493969,0.0134682620825013,-0.0003194681278792,9.07957305121078,0.188161213872784,2.14920073905734,-0.0710415248055209,0.387901259419842,0.0216003718913466,0.235411733142889,0.614005638521818,9.96595463674493,STOOP
1.15,0.0878750141259255,0.0694358150571159,0.0564200694060109,9.17282558933046,0.30516772276935,1.68528604621257,0.094830299111408,0.0290965299485921,-0.0054773994181656,9.01734731427533,0.134454479131129,2.22152490615509,-0.0726373374968592,0.35735769475265,0.0293345106204154,0.198622589725903,0.685797635848757,9.98493169939484,STOOP
1.16,0.133427036976391,0.0452631729402724,0.0308332561152419,9.05826991246311,0.42712770335992,1.53111076212856,0.0935770418310572,0.009227548711117,-0.0216386604279444,9.02102240601266,0.236497154394214,2.25418880065138,-0.0721992838717043,0.310818969221187,0.0458714152003208,0.218910234622101,0.751398267469002,10.0303921453717,STOOP
1.17,0.182190002381778,0.0283406025962457,0.0183497675234082,9.06873882998799,0.675231731391919,1.47555562668992,0.0537703194050082,0.0094802374976581,-0.0224868777165553,9.2767838816063,0.33523617982664,2.14883719009235,-0.0748227484271509,0.277608741952782,0.0501775492942264,0.269318832370015,0.780131575377383,9.97084637556514,STOOP
1.18,0.212977120119206,0.0266696176769494,0.0045499391402138,9.2202235297296,0.699604965527811,1.28527937764786,0.0206086264218203,0.0137534517412115,-0.0169499644128286,9.52617016460578,0.366236160625657,1.96866189850789,-0.0742805245168162,0.247294266874946,0.0573632028503026,0.312501064376831,0.818529811719245,10.0018187030783,STOOP
1.19,0.202675720065167,0.0133922454214834,-0.0069212045795198,9.42580118390523,0.692061715029606,1.18000027823814,0.0173613204456245,0.0067476997494913,0.0005369044166089,9.65474468994167,0.24716158292666,2.10530904125431,-0.0710981823448419,0.227389081671828,0.0582095417905485,0.295023829115596,0.885271287969469,10.0751784203936,STOOP
1.2,0.165631139558767,-0.0050823725960041,-0.0057148290659615,9.70406672282492,0.807275614698664,1.15739765217108,0.0266581944534225,-0.0012637909093891,0.0098646418285295,9.75172767125943,0.163966536792498,2.24276859786767,-0.0706571153902121,0.212251982355064,0.0542180315897354,0.332807654065205,0.87922420988105,10.1365795613183,STOOP
1.21,0.125182307857856,0.0062205388308199,0.0001330610197635,10.0553356773056,0.928762446136511,1.44512771403345,0.0253192219263456,-0.0098484169533896,0.0088205699596364,9.81489096314655,0.149568204368109,2.33675221087756,-0.057336809081932,0.206158875827221,0.0457291692034347,0.421739274560094,0.83043970515757,10.090029581047,STOOP
1.22,0.047701486437554,0.0152081238568942,0.0154413175881386,10.3640487378663,0.921270613447744,1.84501385438868,0.0180001305620711,0.0050204744956478,0.0005024972178736,9.98241492974431,0.259772279696265,2.36730348465843,-0.0411161325762977,0.203482667356733,0.0374054823173287,0.442517539252448,0.749568047908666,10.1905798694455,STOOP
1.23,0.0071757216452903,0.0122504161690683,0.0408345530960884,10.3865565778107,0.860822409584728,1.99766769625421,-0.0104944795351926,0.0100390329718902,-0.0070382864417182,10.0244107230854,0.230801797789734,2.3985969878135,-0.0236356740629067,0.207723635136673,0.0325286281858833,0.47221195091377,0.636048467977121,10.2430077980284,STOOP
1.24,-0.0232717329437609,0.007388257707036,0.054425518914979,10.2830365370769,0.736631941492702,2.19277657858517,-0.0167692896375533,0.0025409601338627,-0.0206901013273171,9.81247635631175,0.285805403823839,2.13871204148024,-0.0075715155747625,0.200051111048414,0.0270879047423251,0.468390746440673,0.54097688254066,10.1899683917116,STOOP
1.25,-0.04678004782095,0.0139700943013414,0.0594081894625475,10.0324723678212,0.522898193841915,2.24619451438704,-0.009135201812858,-0.0046807874498182,-0.0221765334164967,9.62024288098351,0.166063733141346,1.85790129876179,0.0081037364642735,0.192391805340524,0.0367691499837705,0.44966101719143,0.474328603938494,10.1517112265633,STOOP
1.26,-0.0375284675114829,0.0063801010610861,0.0660817519075468,9.64653161370433,0.498076272755437,2.30947932041881,0.0136469760367461,0.0020887542752187,-0.0135276751374175,9.53236820028118,0.0677401024301844,1.66828237151509,0.000155076282686,0.17190486167088,0.0407160772824907,0.365273124682108,0.453695610108089,10.0794854932641,STOOP
1.27,0.019003410808701,0.0158450299308612,0.0581744567475922,9.45736489470819,0.567882768258496,2.24961998788948,0.0416259415704075,-0.0100414378081117,-0.0020407788001277,9.41046652078483,-0.0648836807502909,1.59069309635162,-0.0072340791900648,0.148821304444308,0.0510617823569934,0.262809239540036,0.542974259923394,9.98578504242744,STOOP
1.28,0.107279525837755,0.0216092375724316,0.049731533935173,9.35500546890954,0.570221871082669,2.06768340676477,0.0673534296876429,-0.0271015996296144,0.0003375441255143,9.34222211234929,-0.126398909606915,1.68217980112022,-0.0203992215338381,0.122121368583341,0.0592231012962925,0.159264989320244,0.594162120049762,9.95480757662496,STOOP
1.29,0.160208944074818,0.0296345131932555,0.0371618575443171,9.23619309243424,0.698616816199963,1.81771261386357,0.0743502605607604,-0.0423507341536999,-0.0008346055132838,9.26740248365765,-0.0362770482104748,1.86844896101373,-0.0411908688428756,0.0990911678319667,0.0638395453658521,0.097117704856252,0.730951858281115,9.80727809442922,STOOP
1.3,0.207863034882882,0.0238354551556428,0.0142316232654266,9.19208885406191,0.918407557413909,1.71987414752034,0.0629719135312394,-0.0591255075555367,0.0047830056814362,9.27290351965109,0.0590727924339169,2.02582875749082,-0.0550914317660168,0.0826440423188306,0.0675335291410809,0.0569108737161468,0.779850775795329,9.837329620312,STOOP
1.31,0.222079964273345,0.000294930644145,0.0055156022247293,9.06639127948132,1.1001187967434,1.62820499375242,0.0537655915351891,-0.0660008618061349,-0.0011784510968638,9.44703674096477,0.144147280481008,2.01757662798622,-0.0592646990850829,0.072281886049539,0.0639330611180756,0.0690478852648147,0.808819582555124,9.91642194435683,STOOP
1.32,0.179193149567787,-0.0204968135473964,-0.0087383997765282,9.03196416456166,1.31094254400098,1.42551205157571,0.0597160189840602,-0.0588764195253729,0.0029602185799567,9.55653431379009,0.16815079584742,2.15697977366279,-0.0623139840573208,0.0538628590999925,0.0571938493773976,0.129917647561359,0.799094753754766,9.83406128741297,STOOP
1.33,0.132933973777489,-0.0396798100622332,-0.0029373606585787,9.02953111859565,1.59840632620564,1.256996336033,0.0739448586699358,-0.0607147398146143,0.005573610261565,9.65829257573156,0.0921663602189225,2.2115279864274,-0.0650519344080991,0.0437505204157731,0.0457221864270381,0.216882250266093,0.794512928374822,9.72823127426532,STOOP
1.34,0.0921165656329185,-0.0322337546259617,0.0101302500446054,9.27321538048972,1.5652570000273,1.39182027337143,0.0658304609345913,-0.0547724735765171,-0.0060542830226346,9.75208809009204,0.135394289166291,2.35181307456211,-0.0675631963467354,0.0321453296837829,0.0463398987658147,0.249721076613179,0.72917071429126,9.75332953971097,STOOP
1.35,0.0269688064695514,-0.0087574813050052,0.0121097960775646,9.83607909387243,1.42905982947655,1.79700926183009,0.0528997096294251,-0.036949994953208,-0.0093566099747293,9.82482308387715,0.321910126310719,2.50234789232699,-0.0585038172793404,0.0374888447958858,0.034572381881289,0.23924833764075,0.660622231175305,9.8585900944116,STOOP
1.36,-0.0296838045461067,0.0018731593080461,0.0089684406695521,10.2961197520917,1.2233394715359,2.02956877296277,0.0284577384571666,-0.0172778744869103,-0.0112177665676399,9.94957144783093,0.52831022050739,2.46429748925653,-0.0451370646889439,0.0361012099488565,0.0234949729817492,0.24869340262918,0.603670197838821,9.88603286585941,STOOP
1.37,-0.0698583849595209,0.0067935170740876,0.0079508015686184,10.3042376191474,0.87836959287138,2.18388011218663,0.0073964748163456,-0.0030194305442664,-0.0082035046852524,9.9525211869404,0.595696310848705,2.48338379644823,-0.0341969398628687,0.0451986168419612,0.0131251670790999,0.268010966445145,0.592628626672797,9.88381432434109,STOOP
1.38,-0.0852229719069362,-0.0010956623436313,0.0190672294721239,10.0989861532301,0.604487071656252,2.17256788814783,-0.0176166025758245,-0.0122395772479614,-0.0068590466164434,9.85236323686072,0.551970500678811,2.22797354780153,-0.0162147649542713,0.0460192605367013,0.0064436178313877,0.331733661891521,0.556398488840328,9.89736538821941,STOOP
1.39,-0.083214942667297,-0.0144854095593928,0.0207322953610996,9.88150643368063,0.480214390109732,2.1119755361197,-0.0286454765210324,-0.0093122207727166,-0.0099230229943904,9.62751955018473,0.624356917649742,2.0223080408208,-0.0063024145078954,0.0489380586207428,0.0122192625170578,0.337101825773113,0.521161624212245,9.84948327006489,STOOP
1.4,-0.0754753016454372,0.0090971443390219,0.0293010189476586,9.77529006633894,0.339921348762535,2.13539834129583,-0.0241155348350035,-0.0093450655303401,-0.0090448190671029,9.4227665012143,0.479894713174504,2.05022756402025,-0.0015354460218134,0.0450936289203377,0.0137278128086218,0.332151503772198,0.441919901961637,9.83108738650987,STOOP
1.41,-0.0529429830627724,0.0275026107533834,0.0245548392911501,9.67417248264674,0.214048281261887,2.14160451057194,-0.019137319127903,0.0051754408442123,-0.0138217943148136,9.49854989209434,0.326220297221015,1.89493144642164,0.0041100786958008,0.03821724500422,0.0243348601814488,0.281686130047076,0.456154981312094,9.83625531403427,STOOP
1.42,0.0370470255190241,0.0116980201951513,0.0220433512488773,9.49955534280208,0.29096958818249,1.96328510226784,-0.0125808600085536,0.0143229968381672,-0.0105597214613639,9.57944860867919,0.365249772588792,1.87840078648819,-0.0136876432121069,0.0242269741243018,0.0346145474950984,0.210622867714456,0.489364956238664,9.8229760168049,STOOP
1.43,0.0760472036849114,0.0051653767872763,0.0155761185176467,9.33259506044691,0.350550303830562,1.8342679385371,-0.0078880174241979,0.0114731001735593,-0.0052086117312997,9.49269689679348,0.353973598648746,1.92981099062194,-0.0246692297089007,0.012862105063272,0.0374796342032326,0.303868188217492,0.55030203235441,9.81074837609192,STOOP
1.44,0.0864050020273818,-0.0179482775619933,0.0011278102620741,9.22990217569463,0.587050409907775,1.66604681267973,0.0010602128512594,-0.0029358541635361,-0.0059166838265664,9.45630412845582,0.255279571421007,2.02253523168848,-0.0217998990172707,0.0052424418776249,0.03760685503952,0.330003741775179,0.644591716455436,9.78517336432672,STOOP
1.45,0.101767151368247,-0.0223288223456439,-0.0084631963494893,9.20144993312762,0.810250611091774,1.44465419949462,0.0079550290118305,-0.0130667091506788,-0.0101628094211272,9.3842953292624,0.0950497570688639,2.08512279008969,-0.0210714617781244,-0.0040274723012009,0.0326877204620358,0.342261700681133,0.699600716775567,9.73491635471616,STOOP
1.46,0.101077929237899,-0.0137575670298311,-0.0095554075482276,9.15813070698977,1.01039326808147,1.45164866613761,0.0085947919732123,-0.0147928575482705,-0.0101922068465096,9.35368205112983,-0.0293165982252784,2.14349361813161,-0.0305842387431544,-0.0057096491506802,0.028668368520231,0.370885897195667,0.727367703251963,9.66983656646903,STOOP
1.47,0.0799186613612666,0.002097372215054,-0.0047875623151956,9.17228361238113,1.20579738335209,1.56700317530235,0.0211827931580154,0.0059435668167056,-0.0176213643901478,9.49701388922458,-0.0359462042522343,2.20979377681961,-0.0431523183304734,-0.0147897874070004,0.0179432900993468,0.335620100766344,0.703920106378241,9.62696685405571,STOOP
1.48,0.0352594032888981,0.0306004060724563,-0.0102204979988044,9.38247634876237,1.28616965713911,1.90717125812134,0.0359930205523103,0.0098400607505904,-0.0167363215320877,9.53482272747263,-0.0406535886656156,2.40509933916792,-0.048180489083894,-0.0175813413953224,0.0201964939848087,0.203305215181031,0.670652651737581,9.65692867990512,STOOP
1.49,0.0020675166320292,0.0462342272019709,-0.0116498105553092,9.76453438990441,1.38138351594353,2.0306682751695,0.0337079453748548,0.0185310214846035,-0.0093789260826513,9.73445573409659,-0.0667517516357336,2.59010650978808,-0.0412896656051855,-0.0132926475210612,0.0118448457362784,0.132125818577796,0.662641074478558,9.70657924847752,STOOP
1.5,-0.0219058256011787,0.0549845824408984,-0.0146388503474327,10.1833774564618,1.09863345470232,2.29275204849896,0.028055790873618,0.0484006255934855,-0.0066707275109246,9.79586839723923,-0.0138070178931704,2.6535214974173,-0.040236977059488,-0.0136069036036005,0.0106256844226207,0.0855149918358934,0.660401219585296,9.73279482880531,STOOP
1.51,-0.0489217221198832,0.0478743921154353,-0.0127305771279856,10.2255483310054,0.881183074995609,2.39924851314248,0.014927916643805,0.0632143526967684,0.0026219164505479,9.77354838985331,0.0689023998344731,2.57094124195481,-0.0290705322424991,-0.0060404541265282,0.0123735429951574,0.129825583533605,0.617657966101798,9.76970345331861,STOOP
1.52,-0.0434189398831065,0.0336917839448038,-0.0104640902540244,10.0657108232951,0.638485940076175,2.20724745154122,-0.0006768498754177,0.0541100113690818,-0.0024079260255946,9.68306544921075,0.227778073592874,2.30539536853404,-0.0132273332691122,-0.0040127802115438,0.0165766590992229,0.208408741823013,0.547640554315542,9.73487480417876,STOOP
1.53,-0.0438323936757897,0.0443150338235187,-0.0007522241808773,9.77082090749926,0.439706468381644,2.03887748608801,-0.0031504714241821,0.0498561790566587,0.0002472785122343,9.54746518205195,0.312608327957812,2.10964365800111,-0.0092041316788294,-0.0080136598122981,0.0220167863661356,0.287087319245209,0.478564943103095,9.69995880969895,STOOP
1.54,-0.0258578914661716,0.0581310008094318,0.0056526237488752,9.55462708880992,0.398624058374232,1.82481032966031,-0.00045832031546,0.0535834563568516,0.0034430074840844,9.37802435685548,0.266403604516419,2.05045874804294,-0.0080501927341341,-0.0137884608529388,0.0263388847298488,0.33402591307826,0.384613709660514,9.67603035046702,STOOP
1.55,0.0064010816202817,0.0675294194416154,0.0073223349689928,9.48107744702226,0.346969974002204,1.73996091357101,0.0066831783238105,0.0586870199009809,0.0052863921481985,9.27796637594314,0.217404500738026,1.93215743135403,-0.006576283197155,-0.0200178833630592,0.0333743765502573,0.342539345582282,0.324739359647136,9.66954761255932,STOOP
1.56,0.0398150371908499,0.0729583230677851,-0.0054074148885671,9.40060868705692,0.440514184761154,1.69844691519199,0.0225669354201988,0.0499018398383398,0.0005943095149573,9.34371958163927,0.404824904570009,1.90639407203321,-0.0061816703275145,-0.018802476964702,0.0351450703420243,0.303998934370102,0.345453541676312,9.70789016136505,STOOP
1.57,0.0779395509543528,0.0751954349295752,-0.0196527272314658,9.33182814090271,0.637039199351725,1.61060638558087,0.0216825926062503,0.0657579213879233,0.0111831710105373,9.43551242287726,0.483793771491664,1.93651757917276,-0.0096502806440805,-0.0267748270474373,0.0350736777167707,0.330260546998666,0.416149778149962,9.72413855739052,STOOP
1.58,0.0921322877475992,0.0678684031565429,-0.0201761453820361,9.30930659803749,0.822025540257468,1.55784319364062,0.0031757905693688,0.082808398636172,0.0137044789408911,9.52668550538101,0.46425151109527,1.99258172667244,-0.0144256272701986,-0.0316781393491351,0.04097898437937,0.332457277701905,0.481036813643379,9.76383492305536,STOOP
1.59,0.0898893980767957,0.0807978872235787,-0.0204086166666409,9.45861881131951,0.961807088235378,1.61683821065204,0.0050708685447691,0.0716085616402858,0.0130927387360822,9.6414218572357,0.36783361320889,2.06035249083567,-0.0176802192134053,-0.0346476626909353,0.0380836734333815,0.377161851260916,0.536593848019772,9.74424763650023,STOOP
1.6,0.0739360584310906,0.0926824036091481,-0.0258179893159704,9.51748929440779,1.1137880652565,1.84651176562872,0.0113411564098874,0.0631960467772606,0.0089011877463675,9.67527311301663,0.335215839852586,1.98872509005144,-0.0293886678606144,-0.0301969113209564,0.0309643529477325,0.384478196814591,0.638029411344719,9.72139723820586,STOOP
1.61,0.0488280082475948,0.0875370616668608,-0.0348231883230283,9.63835106450898,1.27641307794526,1.88399260472074,0.0167146163498609,0.04499722006762,-0.0021761532068251,9.67510118569261,0.270481283279078,2.02824834282226,-0.0418889497877428,-0.0275390701169031,0.0287157657418353,0.433142225130502,0.686200774188158,9.75610654703865,STOOP
1.62,0.0326226342735069,0.103605310615327,-0.0374262191646178,9.86743175105324,1.23878866627179,1.96286591972631,0.0241435088324439,0.0419693144360045,-0.0103550140899837,9.75759622149878,0.277987601759751,2.0598195449346,-0.0432869572722334,-0.0196329932353856,0.0207435026802918,0.408055047634931,0.694659197873169,9.70476828397072,STOOP
1.63,0.0024862313146856,0.117460650144567,-0.0354558007723303,9.89939702741898,1.14955477060827,2.22777326406628,0.0328595966600998,0.0452108009011348,-0.0189101858485498,9.71357334344249,0.369864227193836,2.13012872285573,-0.0448731979287283,-0.0073232595468874,0.0166001416980112,0.375681417377891,0.652701395410149,9.73694132180262,STOOP
1.64,-0.0332420069332735,0.108807699801027,-0.0378152085561735,9.91330685656824,1.04974794448747,2.19908094291384,0.0415696115157297,0.0740862033641192,-0.0100100042629577,9.76008995254908,0.406539188532708,2.37269584051709,-0.0379375615238857,-0.001396213187813,0.0073226844382945,0.336118355823721,0.560626053605468,9.85252322245687,STOOP
1.65,-0.0503089137461803,0.0862131769052361,-0.0363969654172688,9.82866943666028,0.919970197155147,2.05434910318626,0.0301626063741945,0.103619402215736,-0.0074171181266245,9.84917377924606,0.450569705541661,2.52776682328367,-0.0406640081437254,0.000173664237113,0.0043264223474653,0.270142402659226,0.494092392110141,9.89567909557688,STOOP
1.66,-0.0383910715255088,0.0766013287026121,-0.0312679660523746,9.67321184776395,0.758471128804643,1.98786823990569,0.0038181162017722,0.1186496970468,-0.0090639857107725,9.83734411273522,0.570754583478729,2.62366141807394,-0.0401952543582983,0.0030515731154369,0.0051606352015543,0.275027806108961,0.418400822918221,9.91007661202244,STOOP
1.67,-0.0169682789933395,0.0774016710418254,-0.0226288467694273,9.56382376992891,0.511534649588694,1.96518838508476,-0.035700018275161,0.115653070528722,0.0003540184410842,9.80052637596161,0.545525099658496,2.48472817586942,-0.0408651693804241,-0.0048086878248785,0.0071308862250669,0.298949445352514,0.341099297900136,9.86765735448611,STOOP
1.68,-0.001311894299663,0.0827156534981442,-0.02421744511389,9.49673696001679,0.476367916416938,1.86234865598158,-0.0593140560344833,0.113585539749411,0.00480019489072,9.70214625001976,0.369778001112299,2.30915293111586,-0.0423655650703759,-0.007348701506231,0.0075045840822445,0.288928250466703,0.292102198714621,9.89699835249991,STOOP
1.69,0.0249663325822191,0.0968968141432545,-0.0394134187126479,9.5862132073229,0.633400706563164,1.85673414381189,-0.069339350290286,0.10772394913801,0.0128166658241924,9.47020232603344,0.240911803289785,2.05174479770498,-0.0312285007111784,-0.009229339576184,0.0082469195726854,0.339248476444346,0.299285612178177,9.85014803235624,STOOP
1.7,0.0343059959847777,0.102155380001557,-0.0357307555545687,9.64230277084666,0.548040419438238,1.94281682835624,-0.0542559722582104,0.0925586162295437,0.0239367159242495,9.28697769580327,0.0850533834806309,1.93285055240008,-0.0184051558242918,-0.01296798890073,0.004782849147966,0.327833902583852,0.348918413486259,9.82363249218384,STOOP
1.71,0.0378625512515559,0.117288695629702,-0.0492565768789089,9.65913860496377,0.60244641112595,2.02745954307242,-0.0504897868159064,0.0702418690329746,0.0227729820216741,9.16982434030349,0.0147173268935042,1.9373885454801,-0.0188237649621303,-0.0235657016937183,0.0019812310722657,0.247590456380324,0.420827127690527,9.80503638704038,STOOP
1.72,0.0506815338320391,0.142371125872345,-0.0577781116565778,9.68448433471755,0.699374609889743,2.1161781079343,-0.0563769927878137,0.0557045851423747,0.0203183863166154,9.27769495583151,0.0074653180184063,2.00299173039133,-0.0175513156556259,-0.0354056114378267,0.0033846938577189,0.256468543705659,0.425982284513504,9.83832822297096,STOOP
1.73,0.057995203205498,0.180825194277386,-0.0536702549461457,9.64795716621357,0.753617004546523,2.1881206713661,-0.0484073835275187,0.0682299222163802,0.0276996587238008,9.3896104529358,0.0340720513528706,2.13327739343013,-0.0231005038750624,-0.0427100206853,0.005723323956611,0.18482911811275,0.438678297902072,9.81302069047226,STOOP
1.74,0.0884847422913055,0.169653013663105,-0.0462244163841542,9.55248245885302,0.856946529558104,2.12248370840991,-0.0379542431898574,0.075289727614975,0.0327729590378692,9.48639135991913,-0.079614378193931,2.19190005906075,-0.0281369574446416,-0.054866382822408,0.006936610722242,0.18210236028856,0.416563847887127,9.80057352401479,STOOP
1.75,0.0856549205139596,0.154280081552463,-0.0428178938362339,9.42427215556119,1.11294098431947,2.03281373344593,-0.0051719119285018,0.0818231074391025,0.0329768096978619,9.58052973067989,-0.067924453595342,2.31431825816614,-0.0303652729561418,-0.0669196578038059,0.0101993619754774,0.112578880952686,0.428413825322764,9.77538018335539,STOOP
1.76,0.0304229397569263,0.139981905836243,-0.0414832444750268,9.2819023295701,1.39281011115325,2.0807083368799,0.0468684911232363,0.100970086139535,0.0311704916727126,9.70601163120196,0.0989211857527243,2.52069090435235,-0.036753356582956,-0.0782708588088395,0.0099083382845649,0.0517369198733982,0.459449658854306,9.76276698752912,STOOP
1.77,-0.0133736926266283,0.138100496781744,-0.0474936574608211,9.27532952085748,1.58814573063808,2.04614930637419,0.0847411099572479,0.118186919463917,0.0274651033677578,9.75639362133288,0.235829989602964,2.7223663833292,-0.0308313792581226,-0.0885032182891866,0.0072559638256862,-0.0216247042719696,0.420192880790847,9.82104044575838,STOOP
1.78,-0.0215103980775868,0.144179612525111,-0.0359026808618532,9.36568063197315,1.48201129604096,2.10204504494945,0.078214088675832,0.140845863175856,0.0185984694426315,9.80290319670882,0.437513324122067,2.83707984350808,-0.0190523820132636,-0.101270028146511,0.0039258490840784,-0.0539625400618503,0.426387366617649,9.88076377788723,STOOP
1.79,-0.0644202015364772,0.157823594205752,-0.0238196375639547,9.5044649577749,1.1963737345451,2.0424753786935,0.0473589584021415,0.168280577400727,0.010956753902919,9.79328357617407,0.626664722953909,2.8258772917482,-0.0160731849371735,-0.115498812068756,-0.007346132790802,-0.0707742554194991,0.393806907538347,9.94609931669382,STOOP
1.8,-0.117088187265354,0.181301571576012,-0.0334618989135835,9.63418801265015,0.941303586264371,1.97443884084586,-0.0057147700058741,0.175026164790512,0.0169130744031087,9.73929129306561,0.780593392891119,2.57871955888434,-0.0153270008947722,-0.133447619104551,-0.0049798412562404,0.0197718009612845,0.468767335356944,9.96963127144718,STOOP
1.81,-0.124767464462957,0.179172119495242,-0.0343149667859151,9.64580507032002,0.739374637692461,1.94058057960875,-0.0389569965103813,0.151220888590877,0.0267638855491054,9.53908204578996,0.83817223073094,2.36143880760354,-0.0037519571758545,-0.142974466750071,-0.021349242716675,0.160046735425689,0.498719062159128,10.0829123367284,STOOP
1.82,-0.0964928926937759,0.179392032206866,-0.0392860079476806,9.65444609315433,0.550896110677175,1.94628526676235,-0.0802655874633624,0.110381233165047,0.0264505324823589,9.44684997243892,0.697627841082257,2.06434329784913,-0.0066842157439232,-0.157324550900402,-0.0216957479326203,0.289234977057651,0.515402554937988,10.1292769183725,STOOP
1.83,-0.0500141613257229,0.182411165467543,-0.0457455867953897,9.66695216489456,0.456533557262553,1.83322610806934,-0.0962352078531905,0.0997376256759631,0.0315814034789298,9.39090146000795,0.489087645414633,1.86301116405139,0.0085467554977061,-0.163728139627405,-0.0240861763173467,0.37699990492975,0.528658027896339,10.2559027123433,STOOP
1.84,-0.0087354239062986,0.189887171895802,-0.0436819080325704,9.73257670120263,0.544999930792438,1.87477451922449,-0.0954419468681564,0.104808358388407,0.0356594279133903,9.38106390448744,0.253355319961413,1.80176963242133,0.016901766686293,-0.176608699157331,-0.025634610896498,0.421275537653276,0.504356117091571,10.3270770252872,STOOP
1.85,0.0142682330657148,0.187114862231862,-0.043916383924602,9.6900758102093,0.940408623728893,2.01727928514111,-0.0954270758378194,0.0973797410342645,0.0373534787065512,9.32069137957518,0.133550370354987,1.83796643425459,0.013282641148521,-0.192687695434118,-0.0211464636185113,0.422291958929437,0.507406453518065,10.3832384527884,STOOP
1.86,0.0185124047706534,0.142712573500411,-0.038441245459557,9.66458766175648,1.09331098612249,2.04310333078103,-0.0760470049808003,0.0960426037109132,0.0424887006302293,9.30590617491114,0.080555953694991,2.17636319345564,0.0232495440022626,-0.21171794813772,-0.0157610204498451,0.340533602188791,0.427255680687077,10.3835637041724,STOOP
1.87,0.0210610529050148,0.11499109181777,-0.0337502561535382,9.74238498465434,1.10477403798029,2.11966094622707,-0.0598822192124382,0.0936118560523924,0.0480415795170409,9.52330845004419,0.193104092541851,2.5354416895097,0.0275253186437641,-0.234193562123638,-0.0126159687902599,0.274153481731305,0.361608565378548,10.4505764595274,STOOP
1.88,-0.007131642890908,0.0903099265981857,-0.032478160306635,9.67606223022188,1.07743786909843,2.14839966127446,-0.0631568129497944,0.0915896205499262,0.0447954227247692,9.71839762760221,0.320697039169164,2.73146055377656,0.0273065365922677,-0.267489293707226,-0.0065147430553486,0.218809494332458,0.315767327897009,10.5302326935254,STOOP
1.89,-0.0512945265810555,0.0491436610854608,-0.0211405669386484,9.47364287895121,1.12912971989236,1.80905705564431,-0.0683591809419637,0.0799791079879516,0.0450305830858095,9.76407055553131,0.323676829244218,2.70535769169419,0.0424545066399679,-0.292880056273205,-0.0046201800374908,0.194271752660199,0.314230515654141,10.5235982033363,STOOP
1.9,-0.0830926635684796,0.034238801189797,-0.0044035394015315,9.3841810907699,1.11323535549714,1.67692097818232,-0.0562569365256472,0.0741443813239516,0.0424061592957925,9.61340362848693,0.255555511930656,2.69745643823882,0.0543746619260755,-0.336407089854971,0.0053853737334916,0.220516833827998,0.312382404589281,10.489665488693,STOOP
1.91,-0.122764229540113,0.0265382596987763,0.0140732388944569,9.33799133996962,1.01726370688775,1.72127771805491,-0.0353014793285089,0.0665081648154311,0.0344870987571762,9.4875989016962,0.112563970492597,2.75451053925686,0.0784650516088651,-0.373258032798674,0.0072945036038938,0.227683394284091,0.319561808418308,10.4588807040018,STOOP
1.92,-0.124459604786477,0.0277747649288549,0.0258950963386934,9.3828246669725,0.855640097007777,1.77912460712328,-0.0292719195634596,0.0555933720700138,0.0195654329921613,9.36211642845501,-0.025660245448129,2.56996759379745,0.0933598678497048,-0.418580964631654,0.011618980699298,0.249241933238335,0.439646251536787,10.4383971901756,STOOP
1.93,-0.111781732036773,0.024853126506901,0.0265372411573313,9.47837518053594,0.734984367065889,1.69460058247315,-0.0161191284546318,0.0548066844033043,0.0035132411177573,9.3284762487038,0.0419548948367394,2.53141338757281,0.0958292421679243,-0.462706184615157,0.01475644905559,0.225582144121296,0.511964323532517,10.5290928238805,STOOP
1.94,-0.0977712351377948,0.0249200704031084,0.0181506434438172,9.55763385929915,0.705048271490583,1.83201378422623,0.0078817736133244,0.0378107943775932,-0.0080356959784215,9.28512588643579,0.135829920346442,2.41547409091648,0.10499804655044,-0.504032944081383,0.02533488260842,0.26334953115356,0.628045452648064,10.5619901167189,STOOP
1.95,-0.0808909803531663,0.0204606140368675,0.0109128676262477,9.69806978812027,0.679736479364494,1.92914618737822,0.0143300024788274,0.0298475496393085,-0.002614330289322,9.24450303793245,0.199142086211782,2.39705511101246,0.110418627924151,-0.535686595073039,0.0361411373123943,0.310323061326822,0.619681937011778,10.5477975327949,STOOP
1.96,-0.0433198631442179,0.0283780294585225,0.0073477437535449,9.75413151321373,0.766529901000489,2.14671992757657,0.020240813779116,0.019379101147806,0.0095380275218939,9.19062326150547,0.0905007874459048,2.34809678336627,0.110774964322848,-0.580257524211883,0.046319119799976,0.346435057998901,0.638441284810518,10.5490884639857,STOOP
1.97,0.0051721420171467,0.0349547467649103,0.002774861312197,9.73203273224026,0.907209602342949,2.47439214447197,0.0292539456777583,0.0105465190463699,0.0154447485630198,9.38404561799012,0.030301572505487,2.34422957924118,0.118427950473286,-0.614287545061136,0.0619474491454413,0.367790139677838,0.526954742677403,10.528712599155,STOOP
1.98,0.035045876408804,0.0048549109866735,0.0102834415941192,9.65621607910317,1.05955771692564,2.59932539840459,0.0401320385763618,0.0016765239595941,0.0182241720887198,9.53073689340322,-0.103279263947983,2.46247670318081,0.113324172673127,-0.665567768565637,0.0782721004989432,0.395857415070646,0.506793251121914,10.5061033327138,STOOP
1.99,0.040656832989535,-0.0190800106864001,0.0048734338065468,9.52984836035136,1.17720467700273,2.5495645753495,0.0476769149554821,-0.0114334969883979,0.0163997764645922,9.56123471039106,-0.174003627803859,2.45134414025045,0.100926239809309,-0.717126469283598,0.087328260838378,0.434964074094125,0.414027197899371,10.4977291846042,STOOP
2.0,0.0339636824756392,-0.0521252775884003,0.005677007898333,9.27744048646901,1.23371347695263,2.31153838368236,0.0699359352828442,-0.0340303673396628,0.0169586449733628,9.48151594490506,-0.210874665422892,2.51804272947988,0.0996597542522115,-0.777727113088951,0.0983982661018955,0.487866368700796,0.389952174617699,10.4168972234569,STOOP
2.01,0.0221304716580029,-0.0854326486120332,0.0136254179138512,9.19059602641949,1.36398545082928,2.15183045823913,0.0999100218911951,-0.0505237926970767,0.0149781550181721,9.46113204825264,-0.0382706804926898,2.71936052999311,0.106687487722817,-0.837719334828373,0.103907694927413,0.517804668710007,0.40759928409037,10.3889372914437,STOOP
2.02,0.0169859542663893,-0.0933405049637412,0.0236885122061667,9.25660148937437,1.39343673601238,2.12478291613959,0.122046980116947,-0.0712492510797451,0.0074153256244137,9.30732704179386,0.119088252322183,2.81412061251828,0.117218815373169,-0.90082972226471,0.100495154069474,0.584000206098435,0.475640863721393,10.3043103154403,STOOP
2.03,0.0081599913725375,-0.0989255005194169,0.0454077897836023,9.24281164414809,1.37448436454821,2.19338599284798,0.121282562132178,-0.0801060270069134,0.0041333673916171,9.15921539724372,0.218189871169705,2.86467748403179,0.132041896691902,-0.962514543279505,0.103078589625072,0.649329910545377,0.515380728840223,10.116598365217,STOOP
2.04,-0.0168460903659875,-0.0931209045839559,0.0628881524593932,9.2204239563657,1.23933317852559,2.26756310798468,0.115250054177154,-0.0991188147709223,-0.0011051591735096,9.01485865665395,0.160628409723613,2.89542859007055,0.155249863553519,-1.02719367347738,0.10829014134645,0.740609264389541,0.521811488829874,10.0766362417107,STOOP
2.05,-0.0380749191447345,-0.0844314993778949,0.0685219220319205,9.17919530422472,1.20526767511855,2.38296756542166,0.0971880686262793,-0.0975983744223165,-0.0072214003181445,9.05946058716241,0.10288901338002,2.9627873204103,0.175078293040589,-1.09050671257675,0.105797833654583,0.838621080259789,0.517885486561456,10.0562783109501,STOOP
2.06,-0.0599172760591493,-0.106907376976401,0.0753263451760054,9.00185888933794,1.21325705441372,2.516998271424,0.0985914802748342,-0.089165584050918,-0.0062723098689387,9.13162193067962,0.0054424507274565,2.92129310732847,0.183461176413123,-1.15627647151646,0.113525969551233,1.01724174873172,0.526833259165601,9.89523310826124,STOOP
2.07,-0.0624800853710405,-0.114199928402166,0.0742687650865762,9.07345834105929,1.29541133173188,2.66323581760893,0.106367183759414,-0.0808303057089154,-0.0075079404557789,9.21177350857605,-0.117057410907191,2.90280877594913,0.186357713075616,-1.2263446201187,0.123783494104619,1.14611317375364,0.518516416814881,9.75283609154511,STOOP
2.08,-0.0787933678261589,-0.107960652565976,0.0702309117161683,9.11491312119869,1.33899555195084,2.83362583176967,0.122399042793429,-0.0777350084356441,-0.0109556657141033,9.28262372264513,-0.182306832390529,2.81830080442363,0.177833576215978,-1.28723534131542,0.127550606964893,1.3152533116293,0.484719072814355,9.67566620647912,STOOP_UP
2.09,-0.0809846496582584,-0.127296810880224,0.0760174024396289,9.08064681164002,1.42975406031327,2.76015238481919,0.121056542002215,-0.082626857474491,-0.012843349826176,9.23604688654101,-0.185962754069141,2.60552902434608,0.1827878608132,-1.3603709203325,0.135577895369492,1.47839507920821,0.545922783869229,9.53813856052893,STOOP_UP
2.1,-0.0498732335408185,-0.150144948046963,0.089090222139726,9.10741540783479,1.37819237762667,2.65975581716127,0.11076256426638,-0.102636094640023,-0.007241681307399,9.13898605376257,-0.137935659848969,2.52340295952375,0.173430135744077,-1.43640884804038,0.139903031324528,1.70645566143838,0.57411115984393,9.45647867192886,STOOP_UP
2.11,-0.0366032602792457,-0.15700098096225,0.0920732984715947,8.99995948120563,1.32992497894406,2.73812493849963,0.130247227611115,-0.0944220526841112,-0.0025598477666351,9.27743103958858,-0.147961486559967,2.66242779492282,0.156157803935748,-1.49470524943781,0.139741067403783,1.88884529709034,0.722258658436133,9.41693419012459,STOOP_UP
2.12,-0.0490078351411168,-0.150509366203037,0.0857045231405637,9.00222759834246,1.52382601431473,2.94293916963016,0.160627128936764,-0.0900816976937041,0.0017117894729419,9.40247400143215,-0.137039145202439,2.85644346482368,0.142948195798877,-1.5536691054397,0.137874040386587,2.11850604461444,0.817901693579409,9.30931879464007,STOOP_UP
2.13,-0.0759604052487632,-0.120346149943997,0.0876607293346645,9.29173871960945,1.65689779283901,3.2940632588761,0.155456420272046,-0.0943909415302858,0.0002402998904636,9.44735211721526,-0.129662172775167,3.07568987709767,0.0999299539520727,-1.62403240584772,0.14057832730452,2.31529353355446,0.957610065226601,9.19970737539756,STOOP_UP
2.14,-0.102624804922859,-0.10424341440365,0.0856627109530197,9.84107242013979,1.59304127969613,3.5198215312365,0.144671572934232,-0.104449696408215,0.0077338231258846,9.50696576845346,0.0503860255643597,3.13454663246571,0.0931466482419232,-1.65375662420195,0.140459863370074,2.57086893339001,0.966249009857576,9.28625580026194,STOOP_UP
2.15,-0.0879633909108593,-0.132788447727581,0.0826962830434744,10.4245344354849,1.09347073735476,3.42114844707884,0.143470461985277,-0.117240410948282,0.0134832091755258,9.60959309918049,0.169595618622859,3.26845618019613,0.111423108129317,-1.68468865040597,0.140513539538048,2.85650814439288,1.01949018718819,9.24450136061507,STOOP_UP
2.16,-0.0951578021585701,-0.182968985989286,0.0782449257979466,10.3302224578941,0.645847363574822,3.13278399487917,0.150229675359853,-0.145421254672583,0.0079547555507641,9.6520284455134,0.237502225075698,3.33893714164297,0.125672892657196,-1.72335893613222,0.139763123131785,3.18258996085659,0.924026896996086,9.01493862491491,STOOP_UP
2.17,-0.0891391999041398,-0.227722022709096,0.0751635732369922,9.83148374080973,0.455166206394046,2.58525969611677,0.133674372394383,-0.177595928673269,-0.0026413062877353,9.65615965308944,0.273016794568902,3.27811438614185,0.141344651149288,-1.75075896460867,0.135517979495661,3.51470413774069,0.85224115847832,8.84457391982551,STOOP_UP
2.18,-0.0493571172580096,-0.241556241759112,0.089279375152736,9.42180676081054,0.509830411884639,2.19018958268525,0.0877405700936188,-0.199801032589641,-0.0078651116759566,9.67139332543904,0.413481646753965,3.03492543085244,0.147128662033325,-1.77797330923038,0.127531420019813,3.81954653845114,0.701246773995101,8.73958311064995,STOOP_UP
2.19,-0.0339706469489421,-0.245322287899413,0.107110083501843,9.1007806457731,0.662494026683108,1.9641982154507,0.0301080103856582,-0.223293091676698,-0.0166641656289735,9.60176017299577,0.577261488496602,2.7162743579755,0.133699164731233,-1.81248595958906,0.124879714545962,4.0782884498786,0.620914247493108,8.59218214085877,STOOP_UP
2.2,-0.0242430274614485,-0.257746020421416,0.131195380958187,9.07541764339574,0.680897289680907,1.8272658099125,-0.0272941923755384,-0.244994064011283,-0.0181974557558027,9.39246935035894,0.62167726516104,2.45207841481055,0.111525008047001,-1.85404448107347,0.11904128022369,4.38522777270225,0.684640008044552,8.30537314819465,STOOP_UP
2.21,-0.0113100030827425,-0.255018025371807,0.129897181339397,9.33972039267952,0.409489333388663,1.94202994124982,-0.0880673530273111,-0.259986646587994,-0.026890978358417,9.27062439994044,0.578591233881572,2.35016650701345,0.0931122854454185,-1.87059268608513,0.120383402515689,4.58077011323738,0.671547410719296,8.20023109986717,STOOP_UP
2.22,0.0093520757219662,-0.249469377224751,0.121097600893215,9.44333538615788,0.210626320075629,2.18709540455457,-0.148446832428363,-0.276025991807083,-0.0238469835424694,9.33670689455064,0.501645975840968,2.27064345043002,0.074587154387433,-1.88561892789853,0.1169475094283,4.75613783090336,0.692261318162265,8.0290307755614,STOOP_UP
2.23,0.0511348264616846,-0.266014012933367,0.122751267828362,9.37168732419146,0.170646093551857,2.43290051731522,-0.190326729602188,-0.294602958013112,-0.0267273697766693,9.54740270749644,0.384551092058411,2.30203045812143,0.0613818153515322,-1.89316189606119,0.116300851979039,4.95977176469028,0.750392942634487,7.77762323261916,STOOP_UP
2.24,0.102918398463126,-0.292895357168084,0.123693189310895,9.28744228350738,0.2563742320224,2.6090304550946,-0.18477017851414,-0.308407021206738,-0.0176032118949081,9.61537244378109,0.33917416905768,2.22767066870149,0.0525421432190826,-1.90241364738233,0.116453386981431,5.09860260444766,0.804272690950436,7.628542508422,STOOP_UP
2.25,0.159725575486717,-0.305737221604782,0.128109246120283,9.28678170038118,0.279910685738461,2.57075970604282,-0.16187500788745,-0.310507668360698,-0.011208005800806,9.41731969053302,0.290663202962416,2.20310551233489,0.0161561017784829,-1.91173257847306,0.117969328827532,5.27293942631181,0.931194670689145,7.53676764987874,STOOP_UP
2.26,0.204175576481172,-0.331454179514461,0.129146343815578,9.38074084797786,0.508507897607957,2.61933315128666,-0.167500658991419,-0.341774741949814,-0.0081023375707861,9.23355907333669,0.377608948419624,2.32609817349528,-0.0022659722996787,-1.90677161843119,0.116998949083914,5.4370397579063,0.976165466613053,7.33697571985419,STOOP_UP
2.27,0.252818509158697,-0.325705015269665,0.136779198358554,9.83721586336908,0.789864741740399,2.75175687469205,-0.205599500781042,-0.350838538860677,-6.79945607006e-05,9.33348827476489,0.383106401552166,2.4300114016749,-0.0192037232305448,-1.89198754613796,0.120084235230597,5.60724795163115,1.03969910171957,7.23229417888675,STOOP_UP
2.28,0.267676096138711,-0.316450426089648,0.132457127480999,10.2791477291391,1.05772815662207,2.67717096094176,-0.249303919939021,-0.36863546302429,-0.0196105850182273,9.6585098219685,0.355627418279304,2.48252726517928,-0.0367105306295827,-1.86859378575935,0.109857554401439,5.75878246955385,0.991787606259017,7.21722294041386,STOOP_UP
2.29,0.277466847822971,-0.342349208366876,0.121910651412821,10.2670957425136,1.19453142927506,2.52070680275626,-0.285779666300944,-0.355851942456769,-0.0374524978328625,9.93170998778296,0.285481635915112,2.50501769531188,-0.0250180065802037,-1.8605269910238,0.104952433743935,5.95325353048891,0.989954832555807,7.05475440886924,STOOP_UP
2.3,0.248968414893277,-0.37171168065425,0.11351038740719,9.66583094803268,1.43901501097391,2.26583201818881,-0.305934169677759,-0.36353288709256,-0.0341325378373249,9.89289347832718,0.212105636496953,2.40997843875516,-0.0219693497663917,-1.86286981608524,0.0898175450368312,6.13412605101316,1.00098764986424,6.86849788746244,STOOP_UP
2.31,0.207846301817181,-0.419081406006735,0.102289569218382,9.03339420485113,1.4692929684816,1.78315535424622,-0.317102839513797,-0.386576316590929,-0.0177141694284092,9.46683684498322,-0.0373705009284594,2.4172110916991,-0.0294494288410784,-1.86504968776223,0.0819593540308469,6.30295503448493,0.993212360062077,6.76348441870549,STOOP_UP
2.32,0.195452954516994,-0.438930531127923,0.10702675233135,9.01601307132861,1.35475017298257,1.37600966959988,-0.315722000742173,-0.414546800166138,-0.0088770790815358,9.22316834897966,-0.236126155336401,2.51562326760576,-0.029005226115305,-1.86393165672619,0.0737128138508577,6.46624520762397,0.954014746264118,6.66811467555825,STOOP_UP
2.33,0.2048127639482,-0.430754389380706,0.136241011673846,9.26157385089929,1.20170467143701,1.26599978051074,-0.301638211609591,-0.430593292182963,-0.0036654379034402,9.28139599011445,-0.376271989782762,2.65940285936448,-0.0040492358280805,-1.86920488241281,0.0729298277841548,6.54938728761391,0.829982112013299,6.52492849797143,STOOP_UP
2.34,0.187518125638785,-0.406704122328071,0.159085165532228,9.4178071652316,1.07982062360749,1.61858811165451,-0.284876301114294,-0.451953902138313,-0.0090866209022173,9.44628495924777,-0.451317154315141,2.69004982210572,0.0088764348400072,-1.87150019969141,0.0702190493661546,6.6978858618424,0.73329247363147,6.32586384836417,STOOP_UP
2.35,0.139873640032636,-0.435611630074343,0.184020404036173,9.54718569753984,0.919097706431124,1.99730734029923,-0.27756725955075,-0.491057216142032,-0.0239615108915858,9.57283543592289,-0.312105880849627,2.45526924261156,-0.0105221499787386,-1.8798655094869,0.0665524358267804,6.86410553204447,0.63174042153477,6.0738122557872,STOOP_UP
2.36,0.11865633343799,-0.487339719010123,0.186407001605633,9.61378923906315,0.721317247284102,2.20554147664196,-0.293134387918825,-0.488041271654344,-0.0223264446229661,9.6036841790933,-0.164831726689911,2.32783070242833,-0.0199969043074062,-1.89670255687291,0.0675782378514389,7.0380559219569,0.608282094795706,5.82764204246228,STOOP_UP
2.37,0.126604603200124,-0.516497008100905,0.186161537891224,9.5746945938028,0.574183974217969,2.14114645431341,-0.285045818860194,-0.50405864015422,-0.0231930488528548,9.39019208911054,0.0245790553988708,2.28386095254617,0.0140350399275973,-1.90559364787734,0.065758614397179,7.06402626338154,0.554345994429451,5.78131969885305,STOOP_UP
2.38,0.13422024489537,-0.530166349141722,0.190135098655288,9.43468675379264,0.42114579998756,2.19757538501834,-0.270308671243445,-0.512841178534179,-0.0303603249144862,9.32183077008338,0.0734535608299867,2.31201333789728,0.003194745491973,-1.92462108165107,0.0632176003437955,7.22603477655151,0.565238120351619,5.68754222408734,STOOP_UP
2.39,0.13422024489537,-0.530166349141722,0.190135098655288,9.43468675379264,0.42114579998756,2.19757538501834,-0.270457008327373,-0.520131890287381,-0.0493183378923361,9.38677733906957,-0.0650503733565745,2.44379080347568,0.0058037276813375,-1.93192681068777,0.0653886644830649,7.35560081207042,0.587540727297556,5.48221309165881,STOOP_UP
2.4,0.121313218441756,-0.493629484549649,0.20896819097769,9.48206909905754,0.404291666301759,2.40113428187727,-0.258082840086113,-0.537384592867061,-0.0731456840982383,9.50138260625572,0.01213185172726,2.46904414761515,-0.0020661366082688,-1.93524029944525,0.0721395051643279,7.36373681535758,0.683900323617469,5.34215347588163,STOOP_UP
2.41,0.120765000123862,-0.421291815411037,0.22533749484539,9.65025452040023,0.513222643787199,2.66801459528202,-0.243928438097238,-0.546292093107978,-0.0701172296110957,9.52211128477202,0.0123123299494877,2.47162926103357,0.0077165338508078,-1.9375006043561,0.0794842044589099,7.53736514924553,0.716400742412096,5.20665946975259,STOOP_UP
2.42,0.170531289263657,-0.351213231791362,0.227788795202088,9.93708126456667,0.667773963176983,2.69789327337052,-0.205712337686553,-0.545996409891809,-0.0702490500736537,9.42499177981852,-0.0462667874319442,2.40177879413297,0.0081002903769827,-1.9433373405145,0.0946311582438391,7.64943783023265,0.722468288531975,5.1306006067381,STOOP_UP
2.43,0.296911616657662,-0.31251926817637,0.206370886408478,9.84183544127806,0.707238898222479,2.52529958765566,-0.143853655137,-0.519047396794312,-0.0741551697722694,9.55335344240213,0.133540355375237,2.43415160087092,0.0225461040641156,-1.93196651391055,0.10328727648802,7.70700924653452,0.750545967966975,4.75329396825211,STOOP_UP
2.44,0.386774098843118,-0.362919642563623,0.162827469778624,9.26830731332952,0.243414042357255,1.95052025555351,-0.130723512532264,-0.539312944642879,-0.0835458410354633,9.60389322303118,0.0301752468937359,2.61761789979069,0.0371513974388223,-1.92583028041588,0.113556416892299,7.91161767734522,0.774433292764198,4.7556349834391,STOOP_UP
2.45,0.410765608586704,-0.413389264360628,0.141558379554404,9.04808897046131,0.0374403534593202,1.78461447008258,-0.164832684015373,-0.533556589644143,-0.0886899779361569,9.62463602428865,-0.0980354997391599,2.41882257240824,0.0285829695387509,-1.92311635708621,0.127081573261742,8.01306058837962,0.765003122699299,4.51485294610234,STOOP_UP
2.46,0.383957019095827,-0.441176157079197,0.145075034125398,9.17170268673381,0.277487429554511,1.87701341811518,-0.205385745475911,-0.562672798108559,-0.092174755325643,9.51986304069736,-0.104103261552202,2.20863510697468,0.0396922322193117,-1.93731531142737,0.13772404010943,8.05545882305363,0.729174075895657,4.34147337354587,STOOP_UP
2.47,0.428717859365533,-0.404878313683748,0.161012421249149,9.51288036340263,0.837221297363588,1.95953064797332,-0.230230382170074,-0.569561189598641,-0.067151819865079,9.39821595283668,-0.166816057259352,2.05492227013177,0.0529035723227288,-1.9410335595858,0.139519345213553,8.22851679817481,0.741661713520082,4.23171968091678,STOOP_UP
2.48,0.548524364047609,-0.334925478542539,0.169656160486593,9.64822214260973,1.27844995456481,1.91398117595683,-0.229569595389113,-0.590510833398927,-0.0541732319955953,9.40489531672071,-0.296252795969663,1.79808981929489,0.0526213146097744,-1.9381497093327,0.138259405625625,8.33238698242062,0.752166735519553,3.8616162404492,STOOP_UP
2.49,0.653159375100676,-0.348139269752309,0.164564636957403,9.55380300830018,1.21318491710525,1.78183433925113,-0.213548507915984,-0.600747231069289,-0.0609268253873668,9.57299293480564,-0.20759242163004,1.82487541589404,0.0614269928562839,-1.92068095943208,0.124919194477907,8.58994816359765,0.723429049400576,3.81619019282014,STOOP_UP
2.5,0.671287804269961,-0.415678800324909,0.159253626614846,9.52906044773876,0.627331579685932,1.56856843801932,-0.187340961778469,-0.60945772894701,-0.0614329113982162,9.61553029900965,0.0776879702729452,1.79021449457038,0.0843969060501739,-1.91534841125127,0.124977679712145,8.22776550419321,0.681328298424672,3.81040895319832,STOOP_UP
2.51,0.583641036470056,-0.468448436770799,0.160804918161286,9.59764717415393,0.265452833283801,1.4898687039171,-0.187014045378402,-0.60822398010759,-0.0689389337798643,9.52091467114574,0.19192238426087,1.70057264664623,0.0867942256360425,-1.91168969613543,0.124030825155298,8.63044093628571,0.757847394665396,3.64438240424772,STOOP_UP
2.52,0.476995857412815,-0.467995449610032,0.173155682061352,9.71924402606369,0.2845637825595,1.48458265607749,-0.183696246339496,-0.617402673815289,-0.105444316644256,9.6526512276131,0.281157469740636,1.58623719272246,0.0832893431419165,-1.90734903630886,0.123807128623531,8.81978828947765,0.783812507234976,3.58406547578584,STOOP_UP
2.53,0.418059493463826,-0.459629259866341,0.184450190715452,9.83783909416052,0.341599635266454,1.38655927102228,-0.19387721490778,-0.612205927719275,-0.1324579518787,9.6911033218082,0.622658352433172,1.46477178704785,0.0817012496280274,-1.89774582111935,0.115184265089928,8.68846381223734,0.677652700273835,3.3020199787108,STOOP_UP
2.54,0.447557162024926,-0.418317375731586,0.195886781499626,9.9776498208165,0.342558178392461,1.23293902683753,-0.236745983072465,-0.598256817364183,-0.156653829234797,9.6621729344501,0.68779239771965,1.31672382932232,0.0846743603237198,-1.8972835081864,0.10463169052852,8.76944608515731,0.65318505617126,3.09466518165072,STOOP_UP
2.55,0.535193051352953,-0.393597886108792,0.209228762321625,9.92534072122352,0.372253440454556,1.14757035091079,-0.308244567447823,-0.59059449000653,-0.167865480136863,9.59294137884906,0.586631135613088,1.18466093383346,0.105578619808181,-1.89096544536121,0.0960609359555411,8.94707645940567,0.678716910842522,2.9382927139512,STOOP_UP
2.56,0.607253695053542,-0.449212696791833,0.212994491735023,9.71538595058085,-0.0092484370708513,1.04814337294524,-0.370786918397925,-0.613657171092558,-0.163759071061442,9.52524964966352,0.541896721909238,1.0990349141005,0.128534338251045,-1.88983543646732,0.090805266390857,9.20443608760494,0.691939195264409,2.9868229407422,STOOP_UP
2.57,0.58463655912511,-0.516429709862413,0.211903565355306,9.57677555633928,-0.216706311536702,0.806017665739745,-0.400839567852518,-0.611479260565699,-0.156472492148195,9.58410430240646,0.467147525914653,0.913861471357902,0.166424543095992,-1.84955914725088,0.0914086651026564,9.22628063691104,0.675235790414065,2.74902246482271,STOOP_UP
2.58,0.536165868241669,-0.55103462109644,0.218139404457495,9.65760789574885,-0.226843397825003,0.575168327756132,-0.444323183259089,-0.621481177893059,-0.146842428876971,9.68005800327303,0.149966990132236,0.773720685584136,0.171348855109434,-1.82013051965232,0.0818943809913542,9.29563230874089,0.707865463643867,2.73850025261337,STOOP_UP
2.59,0.583669691810013,-0.519214880892653,0.212496016180393,9.80297769410381,-0.19495483105841,0.408754748322977,-0.504457638309515,-0.657617167025386,-0.14454053972174,9.82768366734222,0.0282199677631669,0.443682654398882,0.155150531704528,-1.79197864318184,0.0750776080436957,9.3313083955607,0.765652708424156,2.70610893517752,STOOP_UP
2.6,0.697148630068862,-0.515062149227472,0.214696429970258,9.84840255239445,0.163517509626436,0.263648067842482,-0.582837355522849,-0.692564895090839,-0.130367707318085,9.81046102987194,-0.0143767469887484,0.0405786397190276,0.152461247697998,-1.75712422240342,0.0748153818532793,9.42932412093383,0.798762295503767,2.8177873421725,STOOP_UP
2.61,0.772539283830692,-0.551692542299381,0.211142559190332,9.68412016168226,0.308399682912078,0.157322354828552,-0.622299783485729,-0.71599642694766,-0.126315459361126,9.79873366494076,-0.0510808507574748,-0.232382986447599,0.158649599704382,-1.73295708870788,0.071268009014361,9.3343597602325,0.825022913765405,2.5392613775616,STOOP_UP
2.62,0.772539283830692,-0.551692542299381,0.211142559190332,9.68412016168226,0.308399682912078,0.157322354828552,-0.613064299514214,-0.740406486678198,-0.138112572958513,9.71270132250418,-0.174564714887838,-0.312802307994464,0.17458140557206,-1.7187907426164,0.0780592856603755,9.42336619525636,0.81089833597502,2.33985286575875,STOOP_UP
2.63,0.842557616221963,-0.628882498667812,0.189219294019115,9.69279959772014,0.125643420360262,-0.277935817409144,-0.611623827395894,-0.788173464623952,-0.152740083850451,9.67947625055266,-0.336724591558444,-0.540511546073606,0.190726765562645,-1.67378122201489,0.0749901969133557,9.4705850679312,0.820802414547748,2.12041195598829,STOOP_UP
2.64,0.840820156876976,-0.665083761769081,0.187790562388663,9.77882209859124,0.548396305147866,-0.171668951848298,-0.645445928432623,-0.802822941673346,-0.167826405820248,9.78603164941988,-0.11954338107002,-0.716205071744062,0.21063334641694,-1.59889511564137,0.0646293459838609,9.52239510702452,0.861384848273164,2.22229136003,STOOP_UP
2.65,0.836895885136796,-0.712773345071141,0.198121329552638,9.82868329624104,0.86444840329911,-0.482284132149186,-0.645886196072379,-0.812416721681352,-0.185621617919316,9.91781499493047,0.237027188230239,-0.728699649390749,0.208828835022611,-1.56845569621878,0.0624165245279108,9.585947078099,0.778783072427104,2.2190465846576,STOOP_UP
2.66,0.844035826559513,-0.738032557897899,0.192092602350871,9.98028646257214,0.934303246482925,-0.794552693216443,-0.631708332441371,-0.80551806096177,-0.198889377541013,9.96273270822782,0.421809646428348,-0.843054354275003,0.200131913976974,-1.53525668906712,0.0509753934667571,9.68567465365148,0.816460375924181,2.17532264320513,STOOP_UP
2.67,0.830868903118401,-0.754256941880777,0.188801824710332,9.8760752254752,0.772261773544152,-0.981052649744656,-0.613508278986914,-0.800670045261477,-0.198105472260923,9.88923097126349,0.658073468317828,-0.912961843927109,0.200647847413296,-1.49667857080473,0.0421326228839191,9.55522714650286,0.88489874273355,1.93632410223356,STOOP_UP
2.68,0.773688185961475,-0.755905856001315,0.188482775676063,9.84495538941186,0.556589897133705,-1.0703756036173,-0.612924086542658,-0.806321146896912,-0.194047945465247,9.81321765116167,0.709490041849639,-1.03264379444911,0.200647847413296,-1.49667857080473,0.0421326228839191,9.55522714650286,0.88489874273355,1.93632410223356,STOOP_UP
2.69,0.658528634642916,-0.720607179567543,0.199360894853916,9.66646833120694,0.343951046970471,-1.22387985551874,-0.632429208188229,-0.81537971432458,-0.200761660354939,9.6144734839677,0.749749862440777,-1.05331338408892,0.204886824639599,-1.43878768709741,0.0394495424264261,9.70208088153549,0.936824642309256,1.74144211484828,STOOP_UP
2.7,0.528357613374849,-0.699023980077045,0.204944573512782,9.66769872771632,0.0078893154081917,-1.24209818199007,-0.638684397811206,-0.824974373676472,-0.197101815859508,9.45367468385545,0.470843636752997,-1.13326435929817,0.205928205104883,-1.37238992124376,0.02822088323795,9.72722932579313,0.928543650925778,1.7950240824103,STOOP_UP
2.71,0.372710500745671,-0.662049359580471,0.224487437825469,9.71931564760282,-0.288418855500565,-1.20496984128095,-0.659775199455106,-0.851671433821211,-0.196101043128738,9.41149163562125,0.154954220426838,-1.2048638886723,0.216267144287156,-1.31791725435463,0.0132236811524543,9.6428493360415,0.873083115966169,1.82948306505327,STOOP_UP
2.72,0.261036034377782,-0.631466986583109,0.239720058016905,9.62620870141929,-0.690270063458773,-1.17034513229534,-0.693602742024287,-0.838507683743338,-0.200472410275823,9.53662552879196,0.0688258907309289,-1.52425817292973,0.227350505124602,-1.2854579231366,0.0003674699283428,9.77152647584128,0.842484322434489,1.54486807940363,STOOP_UP
2.73,0.215198658825834,-0.623119063746147,0.258836788512981,9.72390027353087,-0.798099428484551,-1.09354029550851,-0.640653427478016,-0.790359335339526,-0.213473151287463,9.64876204424512,0.155915654348873,-1.62946609470623,0.218187758674641,-1.21830865615931,-0.007426186415939,9.72959370126601,0.858538992397041,1.51385724014436,STOOP_UP
2.74,0.18792991864661,-0.624222306369833,0.274755226882446,9.88940309238065,-0.718971163087331,-0.957991115440543,-0.533707637250052,-0.71304841845755,-0.221249454120142,9.76311918379755,0.0714219986608977,-1.73139719187787,0.163283766584505,-1.15217495905354,-0.0140463079111896,9.88725006564689,0.878772185717139,1.75596125353053,STOOP_UP
2.75,0.169911060134563,-0.622825684981514,0.28885217145724,10.1060660730907,-0.375657172915392,-0.921255851129944,-0.420101234029409,-0.685958660943039,-0.215198377777043,9.56239196911734,0.153566692086868,-1.82329131267686,0.140400845788226,-1.07869338185458,-0.0018833078806268,9.94167745403973,0.775157656718195,1.77497360231781,STOOP_UP
2.76,0.200540188717735,-0.66295650620514,0.310243764241906,10.074613773946,0.010877022880387,-1.05050419889832,-0.222246830465633,-0.697733505317674,-0.236055396964332,9.5412196052133,0.214658756503878,-2.03535782989515,0.11469400741329,-1.04287062590046,0.0146257885235571,9.99416334398709,0.720275277911296,1.40243983637515,STOOP_UP
2.77,0.121480097025665,-0.678543727727881,0.317705766697211,9.89975704630839,0.407374825335981,-0.950878084652936,-0.0392434459881327,-0.70658680476265,-0.242475048057963,9.79345469574375,0.157056640504487,-2.15400391077397,0.125640511358389,-0.937808093285735,0.0239266527463281,9.95967371462079,0.786490542443319,1.2154962083533,STOOP_UP
2.78,-0.0250516970504201,-0.64699110680558,0.302144844704315,9.69121464354833,0.434102835768991,-1.05955350274027,0.106836960252406,-0.672903120785092,-0.221572901950582,9.8931622142227,0.382637196455203,-2.07270157468926,0.147070057231883,-0.874820298665979,0.0410523539913966,9.71323891764613,0.837417695357426,1.18540407151633,STOOP_UP
2.79,-0.157815413260217,-0.607014986062883,0.292949681502044,9.65352243496159,0.213161190783847,-1.33512544159765,0.18911172082359,-0.64693474948722,-0.207898674458125,9.91770408718415,0.625335799341899,-1.89464275607794,0.176964157336688,-0.840294794825444,0.0377582780219411,9.68899042731379,0.857929730311117,1.67595442672707,STOOP_UP
2.8,-0.284122379118383,-0.549715522654611,0.276871996881924,9.74318049056968,0.0984187672995994,-1.18398033355106,0.225250341221958,-0.618950463040808,-0.202406516660186,9.78529537399161,0.690979579678403,-1.79095999973378,0.179996903615755,-0.815902627412718,0.0300115974533552,9.82401701077006,0.793835817745726,1.73762123751045,STOOP_UP
2.81,-0.356195589440737,-0.543739827168325,0.258125569524999,9.84166495060082,-0.0953018714206215,-1.03834719985905,0.275604710945731,-0.634273778761582,-0.216232751331085,9.55163369184915,0.737960990191444,-1.82309183771654,0.182464838694805,-0.771885769482975,0.0162348215404768,9.84288438489676,0.773632201531582,1.69446334354751,STOOP_UP
2.82,-0.365138734296987,-0.509708275963835,0.230333903645596,9.91306408214299,-0.371279504091152,-1.22250954307746,0.311853907437397,-0.676104133945773,-0.230364336186104,9.68286039722714,0.394404639226358,-1.77338289382114,0.190484722781763,-0.759708390857097,0.0128824133300855,9.76461339612114,0.694304940108279,1.56825013830225,STOOP_UP
2.83,-0.318873258735296,-0.479006412363337,0.197746527761035,9.87861711453193,-0.783306867205353,-1.04526554909914,0.302331872093013,-0.669918899095557,-0.242137264303913,9.87139159763457,0.210855115240547,-1.79033062782526,0.21452089530177,-0.730145324684916,0.0166283014098264,9.81887411689015,0.652138903173606,1.46212092560726,STOOP_UP
2.84,-0.284031759455205,-0.457550619895211,0.17532957223141,9.68826174336507,-1.28579117290696,-0.967254875799983,0.31609016546134,-0.672285679154067,-0.229143586059002,9.61882314948723,0.738503932068904,-1.94547006410858,0.235486685988657,-0.694549263659399,0.0228876311467308,9.83846364596687,0.641768849955983,1.53012535404642,STOOP_UP
2.85,-0.2231304368013,-0.392743217452221,0.153914002002516,9.64503115684559,-1.6084024920065,-1.281748109815,0.351151018935535,-0.655362338385195,-0.215555397029269,9.42467924587935,1.23357350176337,-2.0117188792165,0.214685977951954,-0.642230938655387,0.0225283950631315,9.97339184713092,0.611242478585752,1.37420083856978,STOOP_UP
2.86,-0.167640161260772,-0.329743963016361,0.150982117767276,9.69440226193246,-1.5838746539804,-1.27484436835024,0.382279980737362,-0.56625873768524,-0.193080197532448,9.68144538366573,1.56765714924528,-1.76424110300792,0.17730683741332,-0.620052977861796,0.0308845113903471,10.0421337313107,0.575415069694274,1.03296490848947,STOOP_UP
2.87,-0.070258057216073,-0.324232135841257,0.151438234451047,9.69402952093126,-1.13736680742267,-1.15891242734636,0.368191084229217,-0.477333399588125,-0.187139604102225,9.9481852262561,1.83137864243121,-1.43947996149032,0.161452050187692,-0.574321995543393,0.0284456795372431,9.99785323932622,0.679278601069371,1.05722100005498,STOOP_UP
2.88,0.02617785823598,-0.342122388864277,0.140494115613618,9.74101342889979,-1.01479211174136,-1.18299102882713,0.269335554272699,-0.449345342663077,-0.184554872536813,9.97756255846865,2.11521868081379,-1.21087204802814,0.157716789622022,-0.537746902338409,0.0269350963687793,10.1083183551463,0.829001616638941,1.14798808572341,STOOP_UP
2.89,0.0818640443050951,-0.347672000532089,0.129637685778606,9.69123355901788,-1.03581291322975,-1.24715329292514,0.164544696648114,-0.402821421048342,-0.157246470534644,9.8869025019501,2.33395005710839,-1.1818811224846,0.159514488038995,-0.482334912690588,0.0243577511192853,10.240158679985,0.986200793406912,1.07763020908998,STOOP_UP
2.9,0.10443227457781,-0.348021519585952,0.122711187432424,9.74768063729053,-0.773913603835261,-1.31740614717483,0.0891830994260378,-0.353248946753599,-0.118886150359489,9.72604035274592,2.29558575113733,-1.06322466892256,0.12080368641389,-0.411305899017753,0.0232247431772333,10.2790284152483,1.0141671950546,1.2861487766577,STOOP_UP
2.91,0.112699014091529,-0.33078854884848,0.109095192509167,9.73478734890123,-0.416479473575618,-1.34765801990043,-0.0003922761563784,-0.334732324552802,-0.0972791118296163,9.6723699146495,1.99595811173885,-1.06937113421383,0.0604455178939485,-0.361861923230379,0.0261502356713915,10.2977483229859,0.929125456589743,1.01522480630554,STOOP_UP
2.92,0.0796778087881177,-0.275625340683531,0.102796426059043,9.78903701748828,-0.202903269293384,-1.43710815500217,-0.10996379004324,-0.306579625974144,-0.0710863400203609,9.74042552767276,1.59518636116318,-1.26780029756275,0.0462587807995774,-0.296396112202309,0.0274055701242204,10.1608235856859,0.891719899771206,1.1049005410519,STOOP_UP
2.93,0.0093975493870404,-0.233015942424948,0.0984532452824639,9.71597734613125,-0.0705186338940199,-1.66722537766952,-0.168063766741255,-0.280180484171784,-0.0621412394557743,9.74138275900134,1.23928388459858,-1.4605242403242,0.0277234732057388,-0.264747069336683,0.0314115143020169,10.1567879084326,0.929995439662001,1.08408519033227,STOOP_UP
2.94,-0.0573583799473091,-0.188444273109017,0.0804970874206091,9.62494505304382,-0.091891727777693,-1.61492781657629,-0.183576275920395,-0.241573689411321,-0.0473144689268899,9.72484172790725,1.00102504854027,-2.00054017790465,0.0105342561962361,-0.232772352884499,0.0334930506577992,10.1076489780493,0.958722740582676,0.77523830437805,STOOP_UP
2.95,-0.113018790185254,-0.187408691343459,0.076374214337706,9.43925862750983,-0.156418455470432,-1.8212092863191,-0.202738251829486,-0.199102072115671,-0.0409120039540065,9.70173766922648,0.658581218751678,-2.12416276228937,-0.0127708431125275,-0.205885542070742,0.0357441322827219,9.94981150112024,1.06940317654065,0.621019774669345,STOOP_UP
2.96,-0.145292250488546,-0.196312398525879,0.0888077010446879,9.53001310149655,-0.0785166116039774,-1.80170299595528,-0.161892851283531,-0.172415290427608,-0.0400448108854173,9.56790149562691,0.552522162382132,-2.14708896582649,-0.0337731165440028,-0.168365572887562,0.0319059637187943,9.73308078772768,1.04607180086281,0.506728796917128,STOOP_UP
2.97,-0.191497143246669,-0.180781281368098,0.0929873223194773,9.61131545828983,8.08048465078e-05,-1.72832149040318,-0.0715266524442995,-0.129528249452556,-0.0382546923281859,9.5534314599117,0.606652463444575,-2.13705960606359,-0.0552556280336008,-0.156733861797821,0.0248949521756237,9.6540175956335,1.021346404931,0.5293808091063,STOOP_UP
2.98,-0.24900762916379,-0.169876190120776,0.0861686996015238,9.78818100209728,-0.437265222893365,-1.56122108793622,0.001290380557376,-0.0642319390718463,-0.0357978043392546,9.75062042679791,0.628332704527439,-2.11402829661731,-0.0792630866164414,-0.154997832504866,0.0114580013355201,9.73093435451824,1.0326110360953,0.58838532645877,STOOP_UP
2.99,-0.25861190517744,-0.170652260722423,0.0886438070731144,9.88393354240619,-0.619096277954377,-1.47008294053524,0.0744946812540831,-0.0194277261854558,-0.0313044689891323,9.74123948725484,0.945594905712323,-1.75406738336434,-0.0991995305619394,-0.16545572091205,0.0054732118913277,9.90171241111164,0.964221655437874,0.548003642518995,STOOP_UP
3.0,-0.249442598169992,-0.159130243704902,0.0802932744254087,9.80340242399074,-0.797752373658498,-1.43297137171064,0.0739169185946693,-0.0243566228000504,-0.0301734437023016,9.64640886285375,1.23269228302227,-1.77355737706117,-0.0985567249549077,-0.142910466463059,0.0093750292163198,9.94227401783193,0.89821593988944,0.455219096302736,STOOP_UP
3.01,-0.220877242400525,-0.137913718744394,0.0590236252554584,9.75510058543216,-0.837785416841465,-1.41267497926354,0.0362088400332716,-0.0342819818756187,-0.0199231227608632,9.59877265326797,1.31781753265812,-1.86701491755475,-0.102304999273666,-0.10184812551306,0.0028073577060436,9.91180443274815,0.820628070704393,0.506452296034879,STOOP_UP
3.02,-0.155922088138639,-0.125648357489908,0.0454287181289842,9.56253071605038,-0.875180171940819,-1.47089077995306,-0.0064265409279457,-0.0531025617338553,-0.020119832824943,9.60750163046496,1.18857292335559,-1.87898151851127,-0.119138616306996,-0.0868776740291671,-0.0089507371409694,9.89832505857601,0.781419390114443,0.46239043743014,STOOP_UP
3.03,-0.0885069817954517,-0.116870766284775,0.0280123689280935,9.74133419170742,-0.971403753010406,-1.41850800085839,-0.0325216930180326,-0.0560640476209492,-0.0104202111803161,9.67125450406191,0.979592976919654,-1.85554094452376,-0.12671435574325,-0.075080546263111,-0.0176561620314802,10.0067556885203,0.761396050031317,0.435687370673934,STOOP_UP
3.04,-0.0551093824081628,-0.111837578502729,0.0416735857104207,9.73951313200634,-0.75490783820449,-1.27664768893055,-0.0481999271354351,-0.0583643165636167,-0.0087376292209799,9.76203796119663,0.848040152550609,-1.80068440462005,-0.12643180954395,-0.0678765219265943,-0.0263962297295797,9.9005529608652,0.693540585030429,0.463327471604508,STOOP_UP
3.05,-0.0643306186330238,-0.113433237934496,0.0409112272306885,9.71147780744076,-0.485263670128351,-1.40488551943091,-0.0373586143955841,-0.0814373174437541,-0.0214221438431201,9.74355158793036,0.901018237237664,-1.9168479290505,-0.124041498792185,-0.0759524012522386,-0.0286297562885988,9.83337801191322,0.682273978582493,0.464636829621641,STOOP_UP
3.06,-0.0307539516721257,-0.089248748219492,0.0396518531816463,9.910129588489,-0.253361067868875,-1.54854402328048,-0.0197067897653835,-0.0715734193121668,-0.0283356793807722,9.7654897296361,0.932815038465788,-1.99592711646129,-0.126478011558173,-0.0843822698320553,-0.0283954321988969,9.69278366784657,0.718449841357456,0.525884331159355,STAND
3.07,-0.0181261990508652,-0.0799921133745444,0.0374270389028208,9.77283077290105,-0.247310549584508,-1.39164245062393,-0.0186487930098489,-0.0615674048761119,-0.0282340555594016,9.54870652680854,0.952020344167036,-1.9337196712956,-0.125001095565215,-0.0881515618127722,-0.0332105475444756,9.6313252359765,0.636540161936798,0.450635525791774,STAND
3.08,-0.0608749686334533,-0.0636303978662606,0.0344260704979938,9.87104203216459,-0.317051277062173,-1.53680858042799,-0.067403514425493,-0.076413620411493,-0.0415938675660203,9.57088391386027,0.784671671010415,-1.86006818247288,-0.123897395979237,-0.11047157577,-0.0234483566559092,9.64345446934356,0.637537214250592,0.388590885043374,STAND
3.09,-0.0432698329156835,-0.0464542058086132,0.0293710536950604,9.72548645135758,-0.21795834580814,-1.52267420054626,-0.0699829460531929,-0.0854963012273903,-0.0450527693215653,9.46471250957201,0.888080150657358,-1.88671935025973,-0.124749833381724,-0.135500790191862,-0.0129068883811628,9.68753604395991,0.614636098511205,0.253488425977981,STAND
3.1,-0.0557672222261299,-0.0388422261152218,0.0273327124109765,9.76060245620841,-0.373942353836023,-1.40967450855708,-0.0534378128724548,-0.0696082192464974,-0.0351696631761233,9.55554363422058,1.04347781056739,-2.00167462766898,-0.118673606254109,-0.146156270466703,-0.0115988295035617,9.70851092138716,0.60349995477954,0.245382816316687,STAND
3.11,-0.0939874789821031,-0.0312582364711032,0.0321717421276358,9.75101536829031,-0.304041401333931,-1.51471143359352,-0.0422629253042925,-0.0519412969610924,-0.0224983004639305,9.56508071135503,1.0581251638983,-1.94923615093311,-0.119026870420908,-0.150455220540363,-0.0054289714293585,9.75354986465981,0.50941627135091,0.299093758594285,STAND
3.12,-0.0967795424986101,-0.0319183064241571,0.0255400051413257,9.65874423954934,-0.416218265708371,-1.67684991871396,-0.0219296199288249,-0.0431414656109987,-0.0131608115216254,9.55175959832982,1.04230701307827,-1.82380146741934,-0.108475776601367,-0.154775990642667,-0.011369144751551,9.88533767447836,0.516980208464011,0.357846978307606,STAND
3.13,-0.102140445884151,-0.0463052951680389,0.0284981231979554,9.63438758567182,-0.524008309556401,-1.78436883054016,-0.0055386009653711,-0.0427872844788957,-0.0153731628013258,9.60609580888452,0.981129704554474,-1.70265240091447,-0.102064534637036,-0.156368561086676,-0.010202086084207,9.86803850176056,0.549868813694625,0.24931031167786,STAND
3.14,-0.132114570914213,-0.0423306250059082,0.0424340155579937,9.62044035426746,-0.41422833339085,-1.79142963585058,-0.0099617038190554,-0.0339058611050691,-0.0167237346965295,9.72159353036293,0.920223525078783,-1.72717349855271,-0.0852238121150227,-0.157827234036433,-0.0104323640000474,9.91189586968194,0.537012848136971,0.13216854631502,STAND
3.15,-0.166798253914505,-0.0443907812571299,0.0437013258928579,9.67896010859244,-0.432823503240117,-1.6426401224176,0.0120701767511278,-0.0103272420388196,-0.0107851274608796,9.79498792270969,0.832121850818195,-1.59248013090292,-0.0672489312868047,-0.140557889255349,-0.0181349360909166,9.95055741647374,0.594864473719218,0.091667859679877,STAND
3.16,-0.188428286401605,-0.05666762775922,0.0448152467251349,9.68598479571525,-0.635992780932999,-1.58115684859262,0.0260343434363793,0.0224119942494238,-0.0049577639172178,9.80190365297297,0.829330213495292,-1.45854271181915,-0.0457540455120395,-0.132790204240081,-0.0119104094434591,10.1880847424592,0.673396861414116,0.1161961508183,STAND
3.17,-0.178473101680856,-0.067752115667768,0.0458932678985309,9.707322131923,-0.598218839587675,-1.65086277451226,-0.0058479505014371,0.0417495076587489,0.0056339111210044,9.79607272614035,0.932617132297975,-1.5151470697497,-0.0393434804487443,-0.102837477952945,-0.0134440483392779,10.1970844448313,0.764351050903107,0.0382304069603506,STAND
3.18,-0.149118010352397,-0.0708078537294356,0.0416092013453368,9.65172155608412,-0.626576503323425,-1.59009597748263,-0.0519913230681251,0.0678858944263245,0.008411259355425,9.76904680981425,1.11423167474177,-1.61076392869751,-0.0426083994734299,-0.0585784920209888,-0.0147240200889305,10.0931822133501,0.825937586002259,0.0078981483994119,STAND
3.19,-0.0971628341745399,-0.0846844338001915,0.0405890297099496,9.70257414988777,-0.647179333600021,-1.87761345970389,-0.0409262033301502,0.0795203154196749,0.0101549233698116,9.5685074547271,1.34805176250805,-1.51566702378885,-0.0608561209744096,-0.0222439721877695,-0.0141809060860343,9.97157136451342,0.818919144470526,0.0125314653686274,STAND
3.2,-0.0688289995491111,-0.0753275130955778,0.0438405664827301,9.70346885379753,-0.391298007492555,-1.81706531841478,-0.0512190536339653,0.0785317909301017,0.0157452348009063,9.45491331514561,1.41752361867645,-1.67414814576101,-0.0768635314328405,-0.0060263111337813,-0.0134961673790371,9.87701374198118,0.749361552478871,-0.0071315274713826,STAND
3.21,-0.0706708762553892,-0.0737781297254714,0.0425136754854183,9.54069285637818,-0.293343529487371,-1.69468296462446,-0.0940336301534697,0.0472210582616406,0.0124386251466319,9.35798840597173,1.29470306279224,-1.79062904525554,-0.0871516534596561,-0.0098788431549687,-0.0131625875304427,9.83368390394174,0.644229486172023,0.0406134314979639,STAND
3.22,-0.0818501925381915,-0.0810323392678054,0.0372245742762748,9.56022213254712,-0.385473157071549,-1.7992974692918,-0.163059682237845,0.0165271754797845,0.0114542165335994,9.3270580908173,1.04561826137047,-1.89849526093938,-0.0805439763725426,-0.0298616526164491,-0.0065499889165457,9.77191487392383,0.57139362193064,-0.006342401897822,STAND
3.23,-0.0846576781129525,-0.0830140493350478,0.0366484050271348,9.72894013423011,-0.561516479169527,-1.83753024183594,-0.207924008315234,-0.0092780940369701,0.0070332427725469,9.45221917462001,0.915009044390068,-2.14277524307812,-0.064872802902211,-0.0503889994910727,-0.0010433410511271,9.80374234152083,0.559246423824318,-0.0588871521383032,STAND
3.24,-0.0674591100983598,-0.0819667320651383,0.039146225114647,9.74512790639027,-0.636523926486639,-1.79973291083576,-0.192464621130087,-0.0193221184383201,0.0021726937176312,9.59827561005904,0.823627690782525,-2.18360793943395,-0.0627883315205128,-0.0304977716987845,0.0036583317188384,9.7992645002819,0.622052071882083,-0.275793487716659,STAND
3.25,-0.0403518000234728,-0.0736832940277283,0.0389070469820546,9.69990907330431,-0.547290703840923,-1.7360819446783,-0.16491733101416,-0.0526436454274134,-0.0049322786589791,9.55425685402069,0.583994799705062,-2.26748355561257,-0.067649906813395,-0.0158204359482714,0.0014106681638645,9.83278266670801,0.628850848562966,-0.281927228990551,STAND
3.26,-0.0602015790946772,-0.0860929225782709,0.0352895454164469,9.69219769385527,-0.453318426555508,-1.58921561933515,-0.118658013584705,-0.0693400545733998,-0.0089011865587123,9.67144037427802,0.67566762740491,-2.41371523070627,-0.070868725639258,-0.0126170300349521,-0.0094911742071081,9.89247957419123,0.570735584827586,-0.0471638538991697,STAND
3.27,-0.0526375234321203,-0.0923816112498862,0.0341321257342093,9.64773274089068,-0.263801419714044,-1.91179937624871,-0.0676648624098287,-0.0828205477548638,-0.0108442700103205,9.59427638326469,0.776650128070888,-2.27922304411278,-0.0724375711060981,-0.0264379917255346,-0.0119404071204041,9.96148956012246,0.493352925478343,0.0886875853565581,STAND
3.28,-0.0216308175500462,-0.0855743846794753,0.0225431253701686,9.56437013378572,-0.370990499779455,-1.83493481087651,-0.0244137320865888,-0.120255907805558,-0.0165862573831534,9.48549022644029,0.784489550865431,-2.10433152469734,-0.0572758505951565,-0.0372692893040918,-0.0100732878985906,10.0021474135166,0.460679560134036,0.0721073442628382,STAND
3.29,-0.0245762976620452,-0.0795433477808976,0.0285819482803816,9.58137748229094,-0.477675089154532,-1.73093234917775,0.0131614500443184,-0.145357716931295,-0.0275343610696097,9.46594963380762,0.710354566172547,-1.90438115243463,-0.0368464455209731,-0.0368807677568024,-0.0021831566677871,9.9469053160452,0.456811821751131,0.046142765776265,STAND
3.3,-0.0307957802613063,-0.0629070990539953,0.0273839493459808,9.57726275410017,-0.431636391796663,-1.6603640783321,0.0482860538967831,-0.121898570192142,-0.0320549651924805,9.51367458894913,0.845165889931935,-2.05368957860742,-0.0186603117508123,-0.0321510065988861,0.0069452356512867,9.87269711821437,0.483375448956905,0.0609148188307111,STAND
3.31,-0.0223035665806432,-0.0483483619403744,0.0262647360764921,9.56062371324392,-0.623022602684102,-1.64858373791505,0.095579447549823,-0.102647340727487,-0.036443815636438,9.48922942331844,0.941935504354427,-2.01578453135187,-0.0040334945498893,-0.0443009095830797,0.0126995493738303,9.76444475476181,0.612046785400621,0.112405764577131,STAND
3.32,-0.0148666388359005,-0.0466356182957684,0.0317063388852576,9.64256761324132,-0.584048062012915,-1.60700389596112,0.125569816820506,-0.0685772619565845,-0.0229815212156663,9.48087828061087,1.09543557388238,-1.8139381965216,-0.0106350996179448,-0.06178363303054,0.0240868329188786,9.78212997030811,0.679108163899225,0.0770841800055323,STAND
3.33,-0.0134465851446419,-0.0546513410517487,0.0330957946883924,9.69970465922517,-0.468428928433308,-1.74516279475521,0.13706386993963,-0.0355090178464924,-0.0216714712410065,9.56370854814858,1.23355292371849,-1.68653133516997,-0.0304347310326302,-0.065725053824566,0.0328211214475649,9.8797641399406,0.777852839343032,0.0234779876458662,STAND
3.34,-0.0013946433308453,-0.0518254470015023,0.0373676764945673,9.72627516258875,-0.383056066656127,-1.78917734556313,0.143521274680183,-0.0145294076961409,-0.0163768292439582,9.63903848095151,1.30911737688856,-1.58538179827151,-0.0337349347544583,-0.0482519441881686,0.040552502850345,9.98679636478858,0.746642476430887,-0.160661077972351,STAND
3.35,-0.0448270762799467,-0.0405649316170089,0.036777306906414,9.69569565505051,-0.223347124892145,-1.79597792377591,0.143146082087593,0.0025191438106314,-0.0085635933847118,9.64617064990836,1.28741253657982,-1.54420304624293,-0.0102824273601873,-0.0058640664073285,0.0452452276257632,9.98707186582121,0.742393939230979,-0.163199368535655,STAND
3.36,-0.0802875242568391,-0.0291337175461843,0.0349306619340332,9.66623179438385,-0.271795568759348,-1.84861471365774,0.118029522252571,-0.0031310635392959,-0.0041557914551062,9.55178979017881,1.2778137962836,-1.6703288855773,-0.002077030519344,0.0305331986207269,0.0442382252863025,9.86921218365364,0.646524438677309,0.0150369433353946,STAND
3.37,-0.0864520666835185,-0.03050201976666,0.0359742292127361,9.57116339188583,-0.412626184096278,-1.94517837048627,0.09874761387104,0.0011404120921492,-0.0066713494022658,9.63024747514469,1.20902980026865,-1.79868667683973,-0.0183840741051523,0.0534616364197091,0.0437638908372075,9.74319654051319,0.583889059652141,0.0495471694775373,STAND
3.38,-0.0930664599822703,-0.0369394748837125,0.0310526092464263,9.57098902791498,-0.623014329384112,-1.99615001192762,0.0801768272797667,-0.0029826332831491,-0.0042012356683834,9.61443102602433,1.12426983431585,-1.86370010282704,-0.0110489239868616,0.0534815605982987,0.0320884086758887,9.78690257714303,0.577194025606351,-0.025421190908724,STAND
3.39,-0.0524547816779096,-0.0498566323410794,0.0295240712199828,9.59564253662101,-0.685976159497048,-2.03107383448845,0.0603793267304558,-0.0198609225865048,-0.0037369072596515,9.64325309534543,0.99043694385325,-1.95997534485298,0.0032537312658609,0.0381673653212106,0.022452732501749,9.79100105523079,0.614896306187401,-0.0648577732197043,STAND
3.4,-0.0112878735659831,-0.048392742845148,0.0281612595836068,9.5721522412932,-0.717316123524837,-1.99564026272217,0.0287204630571601,-0.0236877023338425,0.0094377726019013,9.57137003029832,1.00246286684313,-1.97150825585164,0.0104916730566822,0.0264598775518526,0.0148486887484556,9.77320969402944,0.653898949735103,0.001285908935729,STAND
3.41,0.0367094159148608,-0.0741560752335481,0.0191233032151822,9.5332764628446,-0.745248142304706,-2.0404714305456,-0.0069593042334879,-0.048741063857399,0.0031469432272247,9.44655525656524,1.05031161853161,-2.1766465498422,0.0129510964721417,0.019461536990129,0.0176509499426046,9.81878525484987,0.668427607794219,-0.0318880781047352,STAND
3.42,0.0675166402773205,-0.0860342437129196,0.0190445131948941,9.46257223252822,-0.760847748986764,-2.08009309795314,-0.0057438005224179,-0.0714435789873398,0.0045415080159661,9.43814428288635,1.11206324010696,-2.23387434282572,0.0206840506993596,0.0185709387675078,0.0185724178712014,9.81423098817336,0.618757296775121,-0.142320981196735,STAND
3.43,0.0758265876417058,-0.0897792987588582,0.0280053490379457,9.50905939167054,-0.636105854675869,-1.83607036701038,0.0057073402148766,-0.0834191527373116,-0.000827036683401,9.44457136026406,1.15006227644923,-2.11563536375368,0.0068011663437605,0.0183866417136161,0.0204496018029305,9.76888837539541,0.600734375644516,-0.105263033951146,STAND
3.44,0.0876175367298798,-0.0858570140944952,0.0340803055037239,9.60821051723381,-0.452907741297509,-1.72727617061044,0.0110865252257742,-0.101398464957916,-0.0018076741399254,9.44939093499463,1.07095908186858,-2.16258498072587,-0.0134222559112459,0.0201330540100338,0.0227942211743996,9.76781505912646,0.587017074557394,0.0079069668697487,STAND
3.45,0.0799302596408379,-0.0705017593754324,0.0373517145525998,9.73070475790706,-0.262284618296291,-1.61461965473648,-0.0087219543126527,-0.105361178020736,-0.0028026922578566,9.41675903694201,1.02087766833429,-2.13604996495519,-0.0259812188761809,0.0202908243445108,0.0226468099614987,9.83326450037359,0.579159038989313,-0.0434292240913643,STAND
3.46,0.0562100841370593,-0.0703362005960235,0.0318082209768582,9.7707977257174,-0.342578366063557,-1.5501615857165,-0.0066501055083277,-0.120791965424527,-0.0078798320171837,9.38686768230515,0.90243775067851,-2.17026204410864,-0.0178331818724889,0.0244200954817109,0.0207648252204968,9.75336048644824,0.544640120376046,-0.0239866702882664,STAND
3.47,0.0382562182240901,-0.058299079619514,0.0276129550028654,9.74257144195082,-0.451141401918043,-1.66070709458394,0.0100148118736806,-0.127685242078173,-0.0049519789197269,9.45795687218355,0.73792180978958,-2.21755915059151,0.0016021022019392,0.0236505885789718,0.0165601063504684,9.71515715157276,0.597916871336213,-0.0966292010838572,STOOP_DOWN
3.48,0.0312355038449889,-0.0362164995415026,0.0229162919580574,9.66451618369846,-0.456933722940852,-1.66512071416822,0.0436792250231401,-0.122985347336751,-0.0062518793083334,9.42153677616324,0.780869306980589,-2.23084488780794,0.0012829294677256,0.0252594648945191,0.0073958673425343,9.75946268114309,0.601153350196871,-0.0182708455765172,STOOP_DOWN
3.49,0.0226028641940328,-0.0243855651862649,0.0269428798768417,9.54772856036326,-0.450348482826678,-1.60708914025066,0.0761060284773047,-0.124658205634429,-0.0127173119676826,9.49851406415023,0.829941451888931,-2.20679252540932,-0.0014992978100835,0.023185854772409,0.0046055676451411,9.79492639602769,0.626440949097088,0.0247389676970058,STOOP_DOWN
3.5,0.0223512819712292,-0.0236102364280668,0.0302921494085334,9.50747502962128,-0.425970842598551,-1.75795324104962,0.0932891326210642,-0.116864817794771,-0.0144120099689868,9.54568304933641,0.870216224775387,-2.15431398023603,-0.0045514131011351,0.0281645832867705,0.0022647114059879,9.76315983346592,0.638500860036412,0.0763903051436549,STOOP_DOWN
3.51,0.0065674171143835,-0.0159710828742246,0.0331219077914344,9.55964885321319,-0.385989454013111,-1.68568251206164,0.10558752838369,-0.115187161656782,-0.0223544301240525,9.59303795661326,0.910756954645347,-2.10170151646054,-0.0004430505031463,0.030576533721323,0.0030324420039552,9.71900296020063,0.633848419489052,0.0032473603045112,STOOP_DOWN
