time,left_angular_velocity_x,left_angular_velocity_y,left_angular_velocity_z,left_linear_acceleration_x,left_linear_acceleration_y,left_linear_acceleration_z,right_angular_velocity_x,right_angular_velocity_y,right_angular_velocity_z,right_linear_acceleration_x,right_linear_acceleration_y,right_linear_acceleration_z,pelvis_angular_velocity_x,pelvis_angular_velocity_y,pelvis_angular_velocity_z,pelvis_linear_acceleration_x,pelvis_linear_acceleration_y,pelvis_linear_acceleration_z,label
0.01,0.0492882737366492,0.118632757890654,-0.04489482616481,9.61937721108876,-0.577044224676582,-2.13866876028214,-0.0343261046078799,0.161176958888149,0.048804526486045,9.47927994303595,1.46752215313696,-2.51373044738266,-0.0621435116436067,0.262567025366979,-0.0168288507926205,10.0702110223341,0.86407332706739,0.950317624447966,STOOP_DOWN
0.02,0.0225571200758187,0.127637639310568,-0.048486135041728,9.59314612437818,-0.622444851630094,-2.23170307941758,-0.0600010446895378,0.176929155448159,0.0545775993256671,9.41677762433029,1.49197670106936,-2.63517109643436,-0.0735707074382787,0.268880969636535,-0.0121085933864434,9.9711117609724,0.822129331006781,1.04379989252609,STOOP_DOWN
0.03,-0.0009853057804104,0.143535230351236,-0.0483438492627002,9.58853912283653,-0.663038054510781,-2.16138368573811,-0.0814798758694577,0.17408081275915,0.0585923807583266,9.40791652317708,1.44653769051622,-2.75286094994117,-0.0932572345268603,0.288157837677794,-0.0077603062630729,10.0001258680795,0.791811402347287,1.00894393597341,STOOP_DOWN
0.04,-0.0123024002199709,0.157687999066256,-0.051280267020382,9.66047937458506,-0.75320634427345,-2.08723767655335,-0.0859798101581906,0.198051321557901,0.0673822257981948,9.48989292785817,1.44968268329239,-2.72212227000538,-0.0995590570362199,0.303113490998911,0.0070079684277689,10.0710312666082,0.691120401965202,0.974038415746023,STOOP_DOWN
0.05,0.0002723534124348,0.167623475189888,-0.0549024519653687,9.60092791214274,-0.858275122062085,-2.10477789355296,-0.0847761588823544,0.207650563747164,0.0674893369024476,9.52367411773595,1.4128896910019,-2.75597227482121,-0.108650902301535,0.315047646747742,0.0100766314577815,10.1031748671459,0.72542245212605,1.0820352890538,STOOP_DOWN
0.06,0.0036197605761567,0.175919219707595,-0.0518062050895684,9.64756799336994,-0.88090226430465,-2.04149768082572,-0.0859531232450276,0.231869860685301,0.0755331856672463,9.51853234935872,1.44399601117279,-2.87113196579212,-0.115233912998303,0.329356986229816,0.0133706647700761,10.1457669891058,0.782373187286006,1.21465409776733,STOOP_DOWN
0.07,0.0033570418813652,0.175902137847244,-0.0484072318667207,9.73868022993742,-0.764584159765767,-1.98670728349187,-0.105073759657715,0.250358964196394,0.0863506066282617,9.48926284972734,1.39258659349553,-2.88170739121766,-0.117634796492863,0.359581751407361,0.0064047098462871,10.1600931141275,0.79764007589508,1.32732381397283,STOOP_DOWN
0.08,0.0213881314598165,0.186010519721586,-0.0549317882358262,9.76095489616546,-0.738218994252826,-2.07444017840875,-0.122168958521021,0.265994704034739,0.0956308098044719,9.47599187130638,1.40171307875938,-2.91946552593631,-0.120603341657102,0.383379366118576,-0.0018214325522405,10.2070328044496,0.816330493797633,1.44976450054831,STOOP_DOWN
0.09,0.0196336199207309,0.210053556824261,-0.0652011630269385,9.7470945487369,-0.703962959393827,-2.09751883272789,-0.119144076353926,0.288475028612902,0.106051602083941,9.36327151265673,1.39869544488337,-2.86786172373004,-0.12316976989295,0.409950797326741,-0.0166909369406906,10.1635635891795,0.783736974579237,1.51493190140301,STOOP_DOWN
0.1,0.0047437132579569,0.23380259219792,-0.0801197079780349,9.6830037063436,-0.803436224268844,-2.075910464389,-0.132032272037397,0.313704824685424,0.116175405573211,9.34405319829432,1.37612702582437,-2.88756640859836,-0.129827831115682,0.433732695238207,-0.0220389281107767,10.1472892229534,0.791256069327109,1.35054735264594,STOOP_DOWN
0.11,0.0096114324529244,0.249794428751147,-0.089155000930266,9.57929043424879,-0.824971240150204,-2.12343901178924,-0.126943709166996,0.338240426547748,0.124270168724926,9.38610926720663,1.3127475158016,-2.91584879343907,-0.134205456357499,0.471421127396118,-0.0294254299911688,10.0282470701753,0.761198797951421,1.27513113346096,STOOP_DOWN
0.12,0.0081677140050339,0.278672668087683,-0.100063767887857,9.51475299125809,-0.854074064015993,-2.10744409427149,-0.127356061795809,0.372558181389706,0.140438339904848,9.36590613475499,1.44149392951534,-3.02429136363026,-0.140087996642241,0.519877382601606,-0.0325734527720971,10.0307286563749,0.7878031985932,1.19487445152301,STOOP_DOWN
0.13,0.012167027736228,0.304301502593214,-0.113908736293164,9.37916791817797,-0.885997771786997,-2.10329649245719,-0.125987833398942,0.41360282473801,0.154905613806218,9.28696938210673,1.46508582647479,-2.96621158972168,-0.139967938237218,0.562900551131878,-0.0343262069882614,10.0056009491722,0.808466261249196,1.0112637182673,STOOP_DOWN
0.14,0.011418007896556,0.338056004748627,-0.128845710259041,9.29721994295232,-0.967740437930468,-2.0976986568762,-0.11566327106256,0.437124899444025,0.161052570306488,9.22335818120559,1.51925188848387,-2.82872111791789,-0.151983503241536,0.617150931403008,-0.0367662901523862,10.0943440713798,0.827867056667842,0.886659334710016,STOOP_DOWN
0.15,0.0030709120985313,0.381839459005034,-0.134185382460571,9.46542014803253,-1.1421142571873,-2.06059128829057,-0.11708642660902,0.474578742090954,0.167935207887749,9.25526986993235,1.5682949987364,-2.81273355574924,-0.175933054975311,0.694470539129602,-0.0338190881265664,10.1384082162376,0.908272875018958,1.23409998729831,STOOP_DOWN
0.16,0.0039972410525844,0.422524090797436,-0.145492137770626,9.6867307423971,-1.21396809089652,-2.05536139543402,-0.119099583580757,0.514045127824338,0.18294761599651,9.2543482078713,1.59487455129923,-2.73174367108382,-0.208815679895345,0.765916218312049,-0.0201754406047072,10.3824863635459,1.01013938982263,1.33147641729578,STOOP_DOWN
0.17,0.0064267604772687,0.485305849413528,-0.164044451539036,9.81389812830616,-1.20703662230405,-1.96700900244499,-0.118402685971396,0.540716767124807,0.188753214892709,9.3470155580686,1.58623152787425,-2.66550695007093,-0.220440305851731,0.844165437232651,-0.0095754520888861,10.5176455231787,0.941804503789936,1.49645003456728,STOOP_DOWN
0.18,-0.016826198372942,0.519816506255159,-0.171795999462631,9.90798338495777,-1.12707682513894,-1.8536071043732,-0.114254160645912,0.559598556833906,0.19429044801074,9.45868787535341,1.39828572871671,-2.58948636892247,-0.230013750581711,0.916578436567273,-0.004559217033453,10.5565107801758,0.81474272888826,1.83699558286309,STOOP_DOWN
0.19,-0.0481702352452466,0.534116169197845,-0.172395476995227,9.97797796005565,-0.977876036982028,-1.87593300127708,-0.102330949034424,0.577688573924716,0.206598701653308,9.56928503350232,1.14661982972925,-2.56298336283768,-0.238710989502172,1.00831256927909,-0.00964408044936,10.481991415206,0.69075295549159,2.05067899608255,STOOP_DOWN
0.2,-0.097674131536639,0.544431305731115,-0.178564209933414,10.0210404557507,-0.712354197457245,-1.80997244356293,-0.0680272574754259,0.602902390650194,0.218120271188441,9.80349228705924,0.935310546094606,-2.35588353128695,-0.215386616707343,1.09921060281596,-0.0281903053242545,10.3200864115297,0.543372461660035,2.25142151369894,STOOP_DOWN
0.21,-0.145923798729529,0.551304752287951,-0.181318331113791,9.96806977322522,-0.451701590936815,-1.7648690302715,-0.0317610150877329,0.656750320624756,0.231499456342265,10.0031438356295,0.705431253418905,-2.37672660244391,-0.183101443191596,1.17550247860919,-0.0438347145250591,10.3288748721736,0.538515646258034,2.43380696588151,STOOP_DOWN
0.22,-0.185421173308533,0.538555383768111,-0.188853920181431,9.86435316190813,-0.318978379857916,-1.89618692172943,0.0180904217804701,0.675771508731954,0.245023606138309,9.94416324293504,0.591142047018072,-2.5688962155142,-0.145175568399019,1.25831924841185,-0.0578554213739664,10.1485176514421,0.486164033755865,2.12854760526797,STOOP_DOWN
0.23,-0.214093562016471,0.546915506442485,-0.208771170971355,9.54628836422613,-0.269099432156075,-1.94800511028593,0.0656492871924143,0.709925747347301,0.253987824695044,9.81618453284822,0.509160350210985,-2.73239816467701,-0.160952021607947,1.29927230641761,-0.0573074861843385,9.7362385386038,0.528773713366663,1.69844188462017,STOOP_DOWN
0.24,-0.229718938936441,0.576015826620412,-0.255849790736439,9.31332745109858,-0.436051748490381,-1.97243675686351,0.103455769339777,0.767318860041091,0.27830584210735,9.56442336438697,0.578681428103518,-2.76905094971381,-0.261222822967495,1.25436079168944,-0.065182873556722,9.49836602454676,0.575099319618865,0.894659444341484,STOOP_DOWN
0.25,-0.239944865742216,0.628617385944376,-0.286186420384046,9.34476917050007,-0.705269852950079,-1.80706179256973,0.150036763760915,0.81830084760352,0.29467057888915,9.31228988293509,0.732541588406549,-2.65539314630255,-0.261736472189117,1.26668771593185,-0.047371535923614,9.72221975514389,0.794118358353047,0.561699881064337,STOOP_DOWN
0.26,-0.258721488476557,0.674480843411699,-0.292233176026637,9.69881984075696,-1.00670065321605,-1.6001977108652,0.232481633177154,0.840509272558833,0.294908286841339,9.15575083588268,0.827573244030633,-2.37937625150863,-0.216086916438169,1.38008229560007,-0.0176229661574369,9.98076715312,0.867604228589678,1.04907730734644,STOOP_DOWN
0.27,-0.302338767081444,0.719842945914573,-0.27954557679508,10.2125203908627,-1.30288760096552,-1.41369006581037,0.31644657850027,0.86848145951635,0.279078097139004,9.4171231131596,0.829017163654166,-2.13032623345692,-0.203405541754676,1.47799307595314,-0.0020942405561767,10.076522601844,0.919411635532497,1.65681393636336,STOOP_DOWN
0.28,-0.387066141247724,0.748910011673001,-0.256950595257405,10.4194996070197,-1.48376582807483,-1.15698086990923,0.403969382783723,0.884524395809286,0.25803722921664,9.71696473130487,0.950860021995059,-1.92867809875545,-0.189587257786951,1.54729421772993,-0.0034647432507184,10.0905317570206,0.846778476821452,2.00180115639239,STOOP_DOWN
0.29,-0.456685959209891,0.762206855385396,-0.245219925384307,10.1637882782206,-1.35219389294022,-1.15607090785129,0.494058317217041,0.892213459627897,0.240134143069598,9.74954247768809,0.924713494723212,-1.86573521706519,-0.198716192126268,1.6561569172466,-0.0129997348516789,9.77092695673848,0.66855018574433,1.98839309806766,STOOP_DOWN
0.3,-0.495833202268885,0.747839890911211,-0.23613584388039,9.79459062043656,-0.733992117615127,-1.25617385989308,0.570157051824009,0.886295822646254,0.237251551978614,9.80062028450621,0.712095675653814,-1.75842876015822,-0.180869180853058,1.77888998304237,-0.0282086435660362,9.64828059113748,0.525406470882056,2.2513011547971,STOOP_DOWN
0.31,-0.485066487821104,0.724420014992952,-0.221456139653636,9.60199530245621,-0.251207421892714,-1.39946115784211,0.643011339645991,0.879013147453427,0.244808489676296,9.76353615231018,0.320441935308128,-1.58284107714413,-0.11409079212426,1.87170883877696,-0.0362992898087421,9.52032272494126,0.550944158497287,2.76673970666214,STOOP_DOWN
0.32,-0.429419732910165,0.675948063113961,-0.206140945508419,9.40364737256854,0.291894112836828,-1.62407818929211,0.698535743368782,0.862750139393273,0.221629093843563,9.66287301144728,-0.231091892593702,-1.50019222833644,-0.0731376629871048,1.89761955725218,-0.0385212324135078,9.56743193867997,0.655488055550391,2.84029828176834,STOOP_DOWN
0.33,-0.460942067831154,0.630621664803566,-0.200669106356644,9.34211380737414,0.680595538862188,-1.35694552700508,0.785762705361432,0.844632231880904,0.181373111933061,9.67337667852474,-0.480842813690124,-1.6744182073528,-0.0756825033118766,1.93396089843253,-0.0214903034170459,9.59793928393888,0.867838961706269,2.4431328892183,STOOP_DOWN
0.34,-0.529394062752333,0.620001707886988,-0.211281000739909,9.55820739419995,0.893640236676789,-1.2740640757065,0.895519420327169,0.825128727203057,0.156940230733642,9.66253876416154,-0.585381075888711,-1.72484266051646,-0.0866078183328108,2.00806849614547,-0.0073898558925632,9.36954153936053,0.931015114258383,1.89812436418401,STOOP_DOWN
0.35,-0.563473307449866,0.623730694236372,-0.229297804439032,9.86503294341372,0.696692918664187,-1.20136334933302,1.00144447658339,0.821487751932536,0.123927669419882,9.86509997635377,-0.515265777747746,-1.40025259662155,-0.0708989870648151,2.07946095118953,-0.00160822757604,8.84177124579355,0.854684408478035,1.73224314521366,STOOP_DOWN
0.36,-0.548040926586715,0.629231295983251,-0.228818385755433,9.7908665063212,0.443890960913111,-0.909213849234108,1.06089045424318,0.879838509789308,0.108661989533327,9.96815166889682,-0.344839778008103,-0.705690663686005,-0.0862953328647018,2.11134134930993,-0.0122876984186526,8.62738516718753,0.679188934971115,2.30596940811585,STOOP_DOWN
0.37,-0.513470770390975,0.642314443238326,-0.20257837337251,9.61069339912457,0.190757466135992,-0.474095231824654,1.05375136217219,0.924103863187705,0.0897559473835252,9.78072053155717,0.172153014439829,-0.235896576188293,-0.0941708052081687,2.14626460220821,-0.0322286600097138,8.64647798595749,0.485240671212115,2.89440286692237,STOOP_DOWN
0.38,-0.489592379185631,0.650928238949446,-0.149046597061254,9.63383152362533,0.0270394735236319,-0.0637717054662423,1.00709703425177,0.927731203810223,0.0897302045942509,9.48585747457683,0.748398662349699,0.15310270149789,-0.102704012910054,2.16297588929098,-0.0458977062343292,8.66172399834548,0.337258129880256,3.04294290619068,STOOP_DOWN
0.39,-0.525113493181823,0.663368892237991,-0.0789721336447455,10.0099129914459,-0.286374515780793,0.361367728793755,0.911078462556881,0.89853917668061,0.0897407198674502,9.29101990471444,1.11600919668029,0.394531294594782,-0.128111693517616,2.16877474711637,-0.0381574393750694,8.63043044305795,0.108090350452863,3.32972952550249,STOOP_DOWN
0.4,-0.585306760450885,0.632903501868162,-0.0732640668323206,9.6164055996678,-0.0063815014678157,0.659051827147545,0.793247780167138,0.857280670775137,0.0657954167370145,9.31004484222121,1.43902504341974,0.630845744725258,-0.195939665875233,2.25630958551319,-0.034763215802427,8.76719646005784,0.222357965534202,3.62460745683645,STOOP_DOWN
0.41,-0.585306760450885,0.632903501868162,-0.0732640668323206,9.6164055996678,-0.0063815014678157,0.659051827147545,0.707263520363002,0.806681663742113,0.040892443815731,9.40008855184905,1.70815178199308,0.810485491830763,-0.210181524556344,2.35389598914517,-0.0070807305690107,8.68071865716333,0.394452801231035,3.94810611470956,STOOP_DOWN
0.42,-0.514073083670869,0.551456147219525,-0.0991798845513956,9.19591102208162,0.471254885570225,0.670233410792636,0.629408543658465,0.737939790051853,0.013973057426838,9.43487092819932,1.81201479720866,0.897848405667492,-0.24407717867321,2.43457110666265,0.0205404994595693,8.53192952636949,0.467159984226403,3.68347661531118,STOOP_DOWN
0.43,-0.428945558168813,0.535880605267184,-0.147459606220223,8.8153941032529,1.07915273992596,0.746469609241074,0.521349194744088,0.633361677745229,0.002088792935419,9.90626440370022,1.91953329679419,0.997993266878465,-0.257455692698893,2.42502810604946,0.0266912448540174,8.2201322418378,0.795322900976412,3.44176124314836,STOOP_DOWN
0.44,-0.382276818391368,0.580594200228332,-0.185612633853735,8.84678792644002,1.44609457344015,0.95965227431781,0.353967223118179,0.581988967158585,0.0425980255277711,10.2205244068143,1.83531008411157,1.27956304438117,-0.0841739446885034,2.38407646705329,0.0058462702369907,7.9265907107282,1.17805536629629,2.94457379286336,STOOP_DOWN
0.45,-0.351957048507889,0.645895258286409,-0.205348269120197,9.22895907122992,1.11616384683171,1.29687519788606,0.194549380251153,0.537978208087741,0.112640508334029,9.9059707255486,1.19889932282856,1.54446593840869,0.092814362708089,2.35513422427072,-0.0307294320306672,7.32834603443773,0.97610070871261,2.67640233625512,STOOP_DOWN
0.46,-0.30734146517712,0.713178192142631,-0.219163801235281,9.90489283694059,0.530816506748535,1.61962935005899,0.0859108100949574,0.484348345977272,0.183065726832541,9.49990244966043,0.259892502650496,1.69246901527854,0.178574947200854,2.32123029050122,-0.0721098399350021,7.27189753175132,0.68885733211424,3.53928408238318,STOOP_DOWN
0.47,-0.276321335454364,0.760760981317275,-0.205272152259604,10.4100568947452,-0.186787339570051,1.9377916507195,0.0127660837983487,0.455595634155252,0.226341540977357,9.20693382596357,-0.590197539544871,1.56029082608824,0.224808029605548,2.26394153066458,-0.0685444590273994,7.32532688635995,0.299076032332381,4.53451524492682,STOOP_DOWN
0.48,-0.23822350113196,0.767932107826763,-0.185988005067066,10.5672910614636,-0.656987345901742,2.14824001990231,0.0055489438282673,0.471620475212695,0.234594762060397,8.94269996825269,-0.699032735613742,1.44949477767217,0.124010217184253,2.15327338348734,-0.0538019540769357,7.50364464191218,-0.175677046188182,4.81364658426885,STOOP_DOWN
0.49,-0.172374111809501,0.696237788417455,-0.157357656310582,10.3009063513102,-0.711587021297354,2.3190033962729,0.050268951913378,0.512758885845378,0.242114614698647,8.87030419731527,-0.627926421731142,1.48863033033369,0.0344583852590338,2.10942691935051,-0.0442816117175089,7.65403453515645,-0.460574453964684,4.65541361368639,STOOP_DOWN
0.5,-0.100207581037568,0.586717705919738,-0.136608666916864,9.59709277755692,-0.393038598275975,2.24159305650929,0.113191382185795,0.575523595559945,0.214139615659025,9.3785252145274,-0.596663611912137,1.62794096724551,0.0076174604076429,2.11066152969996,-0.0373259061273743,7.56852178767973,-0.589404591967172,5.09220333295461,STOOP_DOWN
0.51,-0.0444940188608536,0.466656830615663,-0.122000534183812,9.04262213928369,0.206686699940311,1.94975944936024,0.212149012717326,0.715074954232997,0.171829726480069,10.2287772475607,-0.246311820950459,1.73590014945836,-0.0248272055180324,2.15935834789195,-0.0393956678321946,7.57715103689365,-0.685681912003496,5.34380248531104,STOOP_DOWN
0.52,-0.008924487786795,0.387394073222397,-0.129308478758464,9.15535548541975,0.912287559522851,1.70852546146742,0.32822049991717,0.827190448000846,0.114610721962784,10.4235888461982,0.340748886827918,1.76623107759766,-0.0175828227321243,2.16142651232406,-0.0423713012755193,7.51438657511106,-0.482772025034884,5.92988943824154,STOOP_DOWN
0.53,-0.0075916447483517,0.373146057625957,-0.143329486353434,9.442670908179,1.29465196407556,1.73403700839119,0.370134352255375,0.814623183664509,0.0810486953507184,10.1917868727001,0.721152329495468,1.9598652389727,0.0625325418800699,2.13650806140592,-0.0540562599485159,7.4464794623094,0.044525550632107,5.75357025485861,STOOP_DOWN
0.54,-0.0208157593657516,0.401157660336779,-0.151494240359413,9.59354817002733,1.34035018299026,1.82830102450235,0.307815893435214,0.726003132061651,0.0589138980974059,9.94301052864106,0.79054581522726,2.06104965990315,0.161193953637734,2.17158719948736,-0.0534991653168879,7.15225938215622,0.494808476376106,5.26438139911004,STOOP_DOWN
0.55,-0.0093073585683439,0.480881709912647,-0.15145212901783,9.77871329476085,1.31542458576124,2.10630520516578,0.226664219356121,0.643789972050092,0.0458918477262338,9.87581100442545,0.356813368594501,1.94915792019494,0.172233040380981,2.21036489181143,-0.0532175486009153,6.74505938279639,0.913774679627405,5.41177120356092,STOOP_DOWN
0.56,0.0055256969516695,0.552424242976287,-0.138494739220182,10.0729242568325,1.17818589957512,2.35296259671069,0.248694972334334,0.568040369274907,0.0631943873575154,9.58994735741267,-0.0868351416546798,1.63803740695506,0.168481321325574,2.20370601974385,-0.0404565715907944,6.34366951487503,1.14464100435296,5.92924120740199,STOOP_DOWN
0.57,-0.0128109177752554,0.578655146931178,-0.131981298280387,10.076108400104,1.07159470680587,2.39809336502641,0.325759275668209,0.469731617290922,0.0742468668694945,9.40097455713406,-0.323372867325542,1.59658158246576,0.172511154128736,2.17355288822765,-0.0320539645448303,6.15576331631222,1.08170297342383,6.23053141219004,STOOP_DOWN
0.58,-0.0355968645675025,0.556511741793144,-0.111482586675476,9.88749221895438,0.822432122717137,2.36304999248059,0.361193198621673,0.427527701144841,0.0649306178516751,9.41290644257371,-0.386204568969714,1.82570317681601,0.158698672508506,2.13376060685904,-0.01327771638934,6.0248731167468,0.962809301981784,6.30921836288753,STOOP_DOWN
0.59,-0.0651470010574895,0.504127063749803,-0.0784528902508684,9.61998281713436,0.546729192233447,2.37716801495436,0.33112862437681,0.478699619352442,0.0368975488202653,9.56417822652301,-0.271531696861041,1.91654976285764,0.110634355373497,2.10223982813867,-0.0112546558536782,5.93310157379371,0.79545607577429,6.56668389747934,STOOP_DOWN
0.6,-0.0872502194769947,0.405983579285161,-0.0516706236873248,9.22367386980136,0.47134925366968,2.06285994954407,0.334249656061007,0.544208730667015,0.01550566766362,9.624542783473,0.211872331063081,1.91734614779526,0.0590481434505871,2.10682179985095,-0.0109231333730483,5.89320293624178,0.620909841436099,6.83067028150397,STOOP_DOWN
0.61,-0.0872502194769947,0.405983579285161,-0.0516706236873248,9.22367386980136,0.47134925366968,2.06285994954407,0.390080808980774,0.561480549040418,0.0039869059704338,9.71436317281809,0.691276392691389,2.05847183593098,-0.0036450757918099,2.0902964024662,-0.0196300624732615,5.67534333675116,0.598405313570927,7.09066340182343,STOOP_DOWN
0.62,-0.0634292988694627,0.30711022675137,-0.0448253447116394,8.95541913165295,0.31103962060073,1.46775275036291,0.395033385983105,0.560835742600615,0.0076844541538657,9.695332230501,0.890635111035949,2.57295100347231,-0.0511000564879171,2.04723421021155,-0.0390433594467529,5.43811138388835,0.73531894633418,7.4883368442955,STOOP_DOWN
0.63,-0.0278977089713333,0.243564160538846,-0.0496179737776904,8.90749448196608,0.108330662144154,1.09405165189534,0.275710057847909,0.598557778956787,0.0356409200472847,9.78779079055877,0.745821039421258,2.8981977164054,-0.038621653901517,2.01356074063451,-0.0686353236914518,5.27018485797224,0.906226057958966,7.68336082927073,STOOP_DOWN
0.64,0.0499205055100817,0.23631267054192,-0.0732991105667022,9.16498601104181,0.259114935183517,1.12009783184537,0.126823415829653,0.611667130777428,0.0605009808668607,9.8084933850919,0.700224853787429,2.98951441461939,0.0229843969133065,1.96557232655774,-0.102842159697009,5.27080027648822,1.01799216195373,7.66965896778671,STOOP_DOWN
0.65,0.100780908398794,0.229197257179782,-0.104272922983236,9.52067082057327,0.720965460543109,1.26388648844488,-0.0039945012521725,0.540558678476423,0.075196690785964,9.62215143701448,0.668339724680418,2.74001709628636,0.0662626540453174,1.95432865777322,-0.121887149725013,5.12336277020188,1.17074710055647,7.92430941901227,STOOP_DOWN
0.66,0.0777861218110903,0.215238520216686,-0.128613091783116,9.87421442661949,1.05947295891036,1.22820723482812,-0.132031389251231,0.436281011518732,0.112584410034772,9.67041335252713,0.607534636259823,2.4761616462931,0.0992491126065037,1.95666326378069,-0.123708099060457,5.12491192974342,1.0248083995986,7.8809749268842,STOOP_DOWN
0.67,0.0486438990872341,0.208945999978536,-0.147643737695023,10.1095919063709,1.01575498690467,1.4361797578693,-0.255226221871427,0.428536908457948,0.136840886543589,9.78989779826166,0.227832021779606,2.22715537672627,0.11216266626651,1.93757275903738,-0.115722828126391,4.98201158800745,0.948066073530773,7.83416791819678,STOOP_DOWN
0.68,0.0155523915031192,0.185240666996752,-0.143422086195155,10.2070799969255,0.589778817103771,1.46340854421221,-0.322968190149898,0.47678060481409,0.137035666259023,9.7366415418164,-0.294135903494865,1.94096047958482,0.122749624068133,1.91956248280307,-0.109377540263869,4.76871729617017,0.794254922457894,8.05736861371852,STOOP_DOWN
0.69,-0.0256180272199549,0.126793822358092,-0.104706274997352,10.0002097735499,0.25744249836739,1.6168018098074,-0.317839540944067,0.467865877172511,0.133782919386766,9.42675716854197,-0.657064177915951,1.83566226046772,0.117510303497933,1.89588316601011,-0.104102747038872,4.59085772912319,0.555489349286289,8.19673430614402,STOOP_DOWN
0.7,-0.0811940262239065,0.0953259919258007,-0.0522877212745597,9.7780718808846,-0.0904034181995153,2.05124378140933,-0.244607649677039,0.43200748660469,0.116704635932186,9.34396387260088,-0.751833194567781,1.81266969721965,0.118647617563217,1.87791816373338,-0.101291084274138,4.36266440554255,0.388098200754054,8.30364819856995,STOOP_DOWN
0.71,-0.110944944615216,0.0768466700398748,0.001857755369504,9.71676258803653,-0.429165359533806,2.4921626767289,-0.150028395897098,0.40680409863422,0.100172073750517,9.26468963928835,-0.721533478491318,1.8129682641895,0.122759742748159,1.84888201525027,-0.102783264089691,4.03060651089209,0.363736504669802,8.60056064812542,STOOP_DOWN
0.72,-0.0531487774379864,0.0730627518699891,0.0452443037112244,9.73668849455382,-0.633301485008948,2.70367565300425,-0.0588043927546192,0.393132273397048,0.0829168594582734,9.16336060157899,-0.627982868222907,1.98791349623394,0.122811781568356,1.80766879428983,-0.110500975782998,3.55216594644696,0.49490200664156,8.74697972056378,STOOP_DOWN
0.73,0.071228871333313,0.100909273707478,0.0461978752925907,9.74196269935316,-0.497684627274511,2.71971875165106,0.0551865013379226,0.419994422336952,0.0501493520725998,9.39585049253748,-0.384008548825002,1.97907590583829,0.12809894167259,1.76490336477922,-0.114795673200957,3.16334055980242,0.785658304238044,8.83805274442482,STOOP_DOWN
0.74,0.180660868413726,0.132820418103467,0.0344703522696881,9.50917545764367,0.071047217633982,2.77468333101439,0.134787432810337,0.470219067274608,0.0314086119114255,9.60541697813203,-0.168259658042452,2.05838750983315,0.142656511991012,1.71118351745918,-0.109981760869903,3.00484962803603,1.02522572160068,8.72551773541928,STOOP_DOWN
0.75,0.247776901302188,0.15472277923888,0.0013958559793744,9.35392132443021,0.580123551315295,2.75324591884933,0.178274705651167,0.499655699323074,0.0299906826590558,9.66998080347618,-0.282008418886485,2.48719870406796,0.143842960577675,1.62008831306469,-0.0999003841276354,2.80532508186012,1.09212323497676,8.84977710918135,STOOP_DOWN
0.76,0.291779078987952,0.150740295502837,-0.0392865714743438,9.1645078104433,0.777480124394006,2.70545658849805,0.10221009667038,0.518758920148789,0.0420701039469836,9.77843382305285,-0.596579653987105,2.66653519488164,0.110158910094693,1.5570037196128,-0.0801551099731276,2.66024606687791,1.21636448967425,9.1991723960361,STOOP_DOWN
0.77,0.304049923990465,0.130613179225291,-0.0735544367234398,9.05442819231457,0.864088011394098,2.63810643317558,0.029370033921443,0.486096283040579,0.0407928743153498,9.79904239275711,-0.654684525960046,2.47214009401468,0.0634120777999992,1.4986583761605,-0.0629770670746572,2.62471772186089,1.30134424018815,9.51020365199042,STOOP_DOWN
0.78,0.280358614593572,0.110613088957414,-0.0957966588157136,9.06870519508592,1.02161161422225,2.28226730869377,0.0601928629513339,0.430619038466937,0.0305701306774072,9.60597025533865,-0.594515103248513,2.37872080190773,0.0545848452794283,1.44966657314304,-0.0474239499839454,2.45270158588503,1.32604756819398,9.6559418071555,STOOP_DOWN
0.79,0.276540398662729,0.119461430176979,-0.104058484565655,9.29168369539164,1.06706014367368,2.08079146437292,0.0559946610926416,0.408233564950616,0.0408791204758585,9.4544670796694,-0.536894436053215,1.97077541358216,0.0502957985659121,1.39280193547258,-0.0476382894197352,2.40729927390167,1.25453575863157,9.71850492708887,STOOP_DOWN
0.8,0.276412152424707,0.13702394200156,-0.111568644473858,9.5294594414706,0.754419887320434,1.98585254694697,0.0260717105168756,0.406812234209121,0.053352404389881,9.36253722410072,-0.386264372432768,1.73076284943594,0.0182506391181273,1.35691509962416,-0.0533445573574295,2.35006256543995,1.22241836352183,9.81363028549565,STOOP_DOWN
0.81,0.255926846727203,0.144022226029928,-0.0980887055258728,9.70758186326979,0.409005601504251,2.05857055400573,0.0152152100822319,0.379340457711361,0.0567312946946634,9.39683513521164,-0.526746808856863,2.07763716873344,-0.0049459970924646,1.31557751389934,-0.0638428496723575,2.24208800299402,1.16046044838498,9.91798137523274,STOOP_DOWN
0.82,0.238489778267832,0.142059992083319,-0.0850571484900617,9.82715248289918,0.265520039552664,2.1406952513925,0.0042563609213905,0.327789615976363,0.0621832726458481,9.74626224518889,-0.471937505139786,2.14473537736436,-0.0055257593021947,1.25329736844079,-0.0767745437965652,2.06195619677429,1.17954199233904,9.89742368532568,STOOP
0.83,0.228424648527766,0.14532666433234,-0.066985633721716,9.91941865670987,0.346480837183978,2.26820248735013,0.0160333487931559,0.260535342034515,0.0883336778505749,9.80586404345959,-0.459412445964445,1.93930299093229,-0.0549880632892808,1.20493199884695,-0.0930972931919481,1.97309189211045,1.2442257442227,9.6327076838394,STOOP
0.84,0.233756038189084,0.183390520961701,-0.0543165276621657,10.0853323267666,0.406771509416534,2.51983512615562,0.0099245532693255,0.194294414313692,0.112520739778584,9.70951323405081,-0.582279562871358,2.06362042339821,-0.108684483220185,1.16807953977466,-0.0976893186626278,1.8875843082586,1.47630752294899,9.62832733116618,STOOP
0.85,0.272782603073727,0.204255525390367,-0.0536511087550672,10.0804753152098,0.332976732232515,2.55867481176044,-0.0154777219479715,0.143181890235671,0.126192100497402,9.75027347408306,-0.356183026370653,1.85785201612514,-0.131385897484426,1.12831427062727,-0.100557581311048,1.70987072499589,1.64892061266768,9.79345197682533,STOOP
0.86,0.308121129526514,0.190435881723627,-0.0579132669867181,9.78783825112499,0.284021101800882,2.35251002592747,0.0312634778504936,0.097330606081192,0.155719864246753,9.6541491039413,-0.0123587560586311,1.44389716017954,-0.136080480635873,1.08001868173117,-0.0952583752536421,1.57151620689191,1.60659672777062,9.81897128286926,STOOP
0.87,0.328169300800034,0.17074456054563,-0.0813375389265869,9.55072334319531,0.542422399050861,1.97314159144959,0.0682351717893155,0.109891469371904,0.138984001429311,9.56760949342097,0.144177832732412,1.33094713395669,-0.12432470488682,1.04947470347213,-0.087247898026503,1.4138778324485,1.54406587574024,9.94952720639894,STOOP
0.88,0.289627867035712,0.174474768861282,-0.101300879656431,9.46523755703044,0.739466498830065,1.73878440496451,0.0848325469719214,0.148489478885766,0.0996855889776182,9.39195011173041,0.47797980123316,1.00899788387158,-0.111528606633847,0.999161908244958,-0.074770263360659,1.22220194569205,1.39840549344283,10.0697130418022,STOOP
0.89,0.229169891686725,0.167869337232429,-0.107744981397245,9.45951055635854,1.18086964653002,1.64629276979335,0.113525270866866,0.136189740471444,0.0604599992058301,8.9566082237945,0.790742852001877,1.15464927578981,-0.111528606633847,0.999161908244958,-0.074770263360659,1.22220194569205,1.39840549344283,10.0697130418022,STOOP
0.9,0.188853451467206,0.190880188219468,-0.10747139560901,9.517299918588,1.34655221894352,1.51478782861929,0.111915451611844,0.143743537744574,0.0121155667230605,9.00222996662554,0.723272526311181,1.58852187740616,-0.127319117451071,0.914888165418834,-0.0682317114739291,1.11495179970011,1.09578802314593,10.0814074692399,STOOP
0.91,0.16268257129824,0.174152883417311,-0.0975214255875701,9.47203433486559,1.27667376723768,1.42677273040355,0.080061062434104,0.154537220206097,-0.0205358008967743,9.3985148528471,0.766056805007326,2.06480483960952,-0.120628895423674,0.849324034236393,-0.0664169901251471,0.912165512638335,0.752213024361745,10.0783020774296,STOOP
0.92,0.0972202739326923,0.152789988042469,-0.0904779614335838,9.45049896327206,1.32590848895866,1.50953043865877,0.03217248951933,0.170541566646372,-0.0319694234358822,9.83478631215081,0.747097715824709,2.42367971813674,-0.116088454304713,0.793622260668895,-0.0722471339708516,0.830929037230507,0.564026794342968,10.0687757762267,STOOP
0.93,0.0310615600326823,0.141451774683394,-0.0569421304147513,9.48675370373732,1.26063357415929,1.42678817804593,-0.0709115078393381,0.209116834133068,-0.0206267536033318,10.0850201166902,0.469306825159359,2.65591600216112,-0.115469470410816,0.741936647656783,-0.0836986481829803,0.669589152060549,0.47533109409708,10.0655404625332,STOOP
0.94,-0.0159161371246536,0.117628845228774,-0.0259420220384348,9.44505021461034,1.01153684635623,1.37967342156738,-0.153088992540346,0.207856634486028,0.0164252766414922,10.0267849340821,-0.0076894603999021,2.72660965187907,-0.10656094877683,0.689264122204902,-0.0964697744422403,0.544318645610722,0.436731819468211,10.072823821927,STOOP
0.95,-0.125444500149042,0.118856559647162,-0.0078469332731572,9.42029980597363,0.739907873704,1.50281953382274,-0.157755775134055,0.187797277127896,0.0404788969323949,9.6267269178451,-0.509319640083673,2.53023068122561,-0.103926994325162,0.624950853687182,-0.105650140358576,0.465092271437181,0.510118813700054,10.0166136502407,STOOP
0.96,-0.173975693402039,0.133569755427941,0.0002897180294422,9.43271674866,0.639071634555334,1.56604833170433,-0.158607469756872,0.118613707679431,0.0537145671646981,9.27096180612331,-0.701693672818015,2.10889415490156,-0.0960136268119152,0.574313852840404,-0.105158378940226,0.375912198078779,0.658503284051452,9.98716903787081,STOOP
0.97,-0.121562082651236,0.128745464034392,-0.012736393698363,9.534467758982,0.653626284415405,1.64141132781541,-0.164952913826986,0.0785918077173755,0.0621576634133549,9.19236061513255,-0.72778361185685,1.84091638791454,-0.0914073160429457,0.514492646949117,-0.116206716832704,0.316356636211326,0.829423094899279,10.0424424275198,STOOP
0.98,-0.0577212201974046,0.118948913065688,-0.0356399284787185,9.68587105496424,0.570964726254743,1.70685353648822,-0.118080192396955,0.0834486014355837,0.0674944610020527,9.14882438239208,-0.781329078583847,1.69741024648933,-0.0797846144286758,0.467341341329926,-0.108606188563768,0.362887644324189,0.998452929456192,10.0141669337417,STOOP
0.99,0.004086701707142,0.120922258902323,-0.0556620984233498,9.77577828760282,0.443906560744129,1.69507249887575,-0.0742390690375393,0.0816435110056606,0.0658085178593198,9.18810215037596,-0.713050807136915,1.73368818794077,-0.0727008096267649,0.423543119538175,-0.0953989383796316,0.357021023464087,1.10616952184663,9.99017180790773,STOOP
1.0,0.0424244303189915,0.116021083190923,-0.0624904126642078,9.63741558957507,0.485528639354564,1.68441271426389,-0.0214588325456003,0.0963437667574443,0.0489782106960402,9.43481191094227,-0.307270242043395,1.82830054958587,-0.0667610899892751,0.395211899261573,-0.0881346522709472,0.357840511501416,1.04094582509311,9.98190304230334,STOOP
1.01,0.0691572157980873,0.100265555153888,-0.0559313644262206,9.57459405679907,0.491972737039988,1.55684868211123,0.0204171269987804,0.0971607735871,0.0275677057714742,9.52161585057711,0.135139918702526,1.91851237257329,-0.0640321508330541,0.370473851884289,-0.0808724906778926,0.481093855351458,0.964780130570739,10.0145362829011,STOOP
1.02,0.0460196014415824,0.0754816171017407,-0.0243531457831805,9.55959731040023,0.525911877253919,1.29391739309643,0.0573838324258885,0.087835161408036,-0.0003132226012589,9.5829063841641,0.429725302177106,2.02849957619026,-0.0578915372297095,0.362145614965485,-0.0789690042775546,0.475194116909798,0.816687542126929,10.0308332209294,STOOP
1.03,0.0523608205379161,0.0504699007153124,-0.0095703187577063,9.63511762213494,0.720207294686673,0.980114967314705,0.0733647266540685,0.0856967110703053,-0.014545831301856,9.65220420368474,0.46423725338742,2.0153692740522,-0.049730669494037,0.355815005798709,-0.0693189631470895,0.508436934037591,0.598265103594849,10.0898329094296,STOOP
1.04,0.0513268041949062,0.055877934777093,-0.0053401277335356,9.69059649379151,0.644509177857739,0.817846036884467,0.0816087295614228,0.0749337570018692,-0.0332005633006046,9.82919699920269,0.542748953411141,1.86442339021078,-0.0313365585483905,0.347687176784052,-0.0805013519264688,0.460364869074693,0.532186712273433,10.1659711339084,STOOP
1.05,0.0061542252381519,0.0746391146381032,-0.0190273247632544,9.71222063735882,0.690882926918234,0.917841589220691,0.118899578973148,0.0542832862449467,-0.0408271698689727,9.83568303060608,0.68322641371117,1.65277151707904,-0.0245921366094564,0.328128850188256,-0.0769056149198928,0.498335039609951,0.561356531175817,10.2385439841655,STOOP
1.06,-0.0446574225833947,0.0379908710307459,-0.0290258836240726,9.65676282884066,0.811570202689741,1.17169470591757,0.0894877741307044,0.0142832383941355,-0.0511387793804064,9.78316191332211,0.524421223065171,1.42533744590199,-0.0269550259120571,0.31021709117845,-0.0732138445831673,0.529267968215065,0.631498083543774,10.1511168962722,STOOP
1.07,-0.0710617233527908,-0.0220171246382002,-0.0262942567780074,9.70014006760442,0.988685674609686,1.33913849712214,0.0578524366796396,-0.0110266134034521,-0.0480922482610839,9.69722712053081,0.320770927658673,1.5197219394106,-0.0381988230601701,0.298576475115019,-0.0700449592113409,0.517611584852967,0.780868713082878,10.1237035487289,STOOP
1.08,-0.0582464593293844,-0.0471781754708241,-0.026790084746505,9.8141157180057,1.04324643953897,1.18279612228671,0.0516240069320275,-0.0253071495510689,-0.0417033975602466,9.62630142147156,0.147435515834171,1.51176554212163,-0.0390004797752478,0.28804635600335,-0.0670261775796835,0.403520435027607,0.850855745101889,10.0440458043289,STOOP
1.09,-0.0605644676842195,-0.0711899108412145,-0.0342532859575716,9.66876681161175,0.958962637558452,1.39294316888112,0.0402312176700164,-0.033210638811707,-0.0290594270802432,9.61316767803332,0.0253254243434257,1.55094699302139,-0.051555514550702,0.276882850317194,-0.0603431303773632,0.293446929062486,0.97574181642722,10.0114427124512,STOOP
1.1,-0.0679064121954448,-0.0724937201934517,-0.0498462429602322,9.52929813818145,0.968092639958044,0.998263125935942,0.0162225394470018,-0.0347312454386249,-0.015718776853297,9.6136880041336,0.0279151717744008,1.54767368172358,-0.0697045131586926,0.261725569030704,-0.0589503408871699,0.274863025683924,1.05675218385109,10.0234758183238,STOOP
1.11,-0.074405622592043,-0.0626590131503531,-0.0440543077249439,9.34138353088759,0.852922195387008,0.859045343563836,0.0094193433035763,-0.0370243054272991,-0.0090231860586903,9.49669362368883,-0.0817241058090127,1.57026276640294,-0.0744326015282624,0.262144915886782,-0.0590760601553369,0.175464641136065,1.05786019771388,10.0187224880684,STOOP
1.12,-0.0952189556947564,-0.0503387760036819,-0.0420611906829304,9.42029730545751,0.675361240817537,1.10550174458872,0.0090362546320501,-0.0189338083806008,0.0071470029818016,9.43702138988928,0.0058867668896023,1.66865509687033,-0.0653510941306767,0.255396961337867,-0.063276837777489,0.121344126728219,1.03799438921358,10.0361625450623,STOOP
1.13,-0.108466971432823,-0.0362392827393856,-0.0194151686728035,9.67140501630305,0.689314001184674,1.11273821692711,0.0195137572943801,-0.0395627516131098,0.0149511872450822,9.31103969158922,-0.0191155492342368,1.90657149795514,-0.0555203314772815,0.255629350975707,-0.0567724674724779,0.159484657115446,0.955497912894373,10.0485952243267,STOOP
1.14,-0.113341656481278,-0.0181026121655066,-0.0063500827245408,9.89409162966323,0.537823758525626,1.3068774598821,0.0395152502076909,-0.0556356413343247,0.0072577603590318,9.31415989842468,-0.104806709461793,2.14235715266196,-0.0502691845912177,0.246036328578146,-0.0564994370341221,0.125674752558259,0.881860853280097,10.0543816285473,STOOP
1.15,-0.139892568461682,-0.0299183716268319,-0.0007147314377401,10.0188412673495,0.327231131485312,1.58303823260571,0.0402675800431374,-0.0551929757459656,-0.0009253350023843,9.60796288217603,-0.0367862518659285,2.34683819173542,-0.0475624009056312,0.239971722425675,-0.0504755448045022,0.109909185464524,0.774495580749364,10.0989692713523,STOOP
1.16,-0.106790007164115,-0.0518406955925383,0.0121980158483721,10.0454894017931,0.0922379046888532,1.45437509116075,0.0484478657556904,-0.0254546833314443,-0.0055716645262577,9.90479921417111,0.174258444665302,2.66718449040236,-0.03829405626554,0.232142185653495,-0.0400411599454044,0.0736900663396248,0.667579059621864,10.1067517627123,STOOP
1.17,-0.0953055781970219,-0.047992411700361,0.0261932509699453,9.94608335789248,-0.105687656206261,1.57075057019926,0.0553793099753681,-0.0131218464328764,-0.0065639498376527,10.1727613424706,0.269485983242614,2.80198755658351,-0.0329935118191313,0.211981402697543,-0.0286780046118278,-0.0057288156507852,0.582409213894998,10.0911305657305,STOOP
1.18,-0.0965950190069924,-0.0507096958694549,0.0356449567531886,9.91810983989413,-0.093128878548225,1.60888922357407,0.0420135276825737,-0.0185764486413845,-0.0102552076564752,10.172415906975,0.367099437565531,2.85869347852366,-0.0369816229888643,0.196331927378265,-0.0139863569199134,0.0076657798022354,0.586471671695423,10.006904216759,STOOP
1.19,-0.0823512996176597,-0.0485885320853096,0.0460367989612453,9.88293224404222,-0.194839935346892,1.78378220233142,0.0193330524667361,-0.0432426121839771,-0.0145017915849716,9.79110547986229,0.543877816965778,2.52442993339726,-0.0393480074039116,0.178054055460351,0.0090718322565656,0.0041869532339759,0.682563675530792,9.96582442222461,STOOP
1.2,-0.0397001955854897,-0.0264413415234788,0.0460470955776705,9.79723319999824,-0.245477527229476,2.03025986331101,0.0358638165763774,-0.0733766249129921,-0.0177860985845351,9.34890915238602,0.414769045844365,2.29894265116957,-0.0573266755841679,0.156313413185552,0.022783520957383,-0.0178372165600495,0.777621201132931,9.88811709234549,STOOP
1.21,0.0619561594150812,-0.0092599656526633,0.0334627023684589,9.6772630854218,-0.206297872676631,1.83527227774788,0.0234150410895726,-0.0976540063827184,-0.021904092641555,9.08287622739686,0.061660949015176,1.98068361507401,-0.0567061702089188,0.141914620709581,0.0382584973629899,-0.0685235024702351,0.879968593280637,9.87647710587641,STOOP
1.22,0.167111165341136,0.0024647873190663,0.0087376474294841,9.63425565649625,-0.0415638315217914,1.76877464569929,0.0143866028695465,-0.105803818036211,-0.0372195481384536,9.05851404926619,0.0042724468617246,1.63076533316074,-0.0557251361306395,0.131041247764932,0.0504523346139402,-0.0782068864115788,0.87177279349841,9.84261389440875,STOOP
1.23,0.238917133853317,0.0056636498179176,-0.0155969014191719,9.59546465317384,0.304575597874661,1.74481226855196,0.0604566431048601,-0.0834077139159611,-0.0383367366589733,9.3565791956579,0.0377314811773701,1.61825318547246,-0.0506632180941774,0.125769046327479,0.0569536553618992,-0.0844324810598542,0.821881836387567,9.96885635399004,STOOP
1.24,0.250531421357158,-0.0114137945253414,-0.0218468332554281,9.71795416832548,0.730034993335903,1.57335856443167,0.0717887885160305,-0.064236593430506,-0.0350638292457783,9.55780899439649,0.130043639408347,1.73561393809825,-0.0550007020631789,0.115502106398518,0.0631960114566101,-0.0559152164358241,0.742826621693447,9.97896316776023,STOOP
1.25,0.244750000736427,-0.0088444840570005,-0.024742388849046,9.7454444007598,1.14928358059288,1.46292565189349,0.0628899592331401,-0.0511318195920291,-0.0286864046745388,9.74390316537737,0.317237976156988,1.89254652939727,-0.0568725667315389,0.104748240087211,0.0671287180579835,-0.0117388327319233,0.689736685663924,9.88415714756528,STOOP
1.26,0.242034173057401,0.0098691458723746,-0.0182134568217158,9.65769623078936,1.42580265826588,1.4853322309291,0.0627187736287998,-0.0476930398903263,-0.0286116375474425,9.87651244937862,0.352459507391289,2.03244645066881,-0.0441845250417099,0.10447019162219,0.0668467919165158,-0.0296090407754042,0.634747676798837,9.90487824478723,STOOP
1.27,0.201149093809993,0.0046372467427727,-0.0267628207694463,9.4748101986906,1.57897878683446,1.41152183686787,0.0698341683490399,-0.0409709741511204,-0.0195249699803328,9.82221892008153,0.344964472309811,2.15861065345508,-0.035318078639184,0.0870711300334707,0.0633405991616596,-0.0669506190174403,0.59938802645808,9.90452195513681,STOOP
1.28,0.137912608276041,-0.0273063823821388,-0.0234208734195663,9.21880810533516,1.64386480902211,1.4343662476922,0.0723414980520051,-0.0490676137206177,-0.027204284443236,9.74708849100822,0.314214626152691,2.21013904404999,-0.0394519296392886,0.0789222669399192,0.0530367937737384,-0.167030937073736,0.641037863489997,9.89151574128374,STOOP
1.29,0.0491789803584362,-0.0647581750852189,-0.0115891065326048,9.00297208496735,1.71906847752656,1.3378352541183,0.058865456828634,-0.0256239551943895,-0.0261098314615487,9.72886861450127,0.219980698730219,2.16267561774095,-0.0429039342031258,0.0671561646403381,0.047206394919845,-0.194389332768913,0.637261501250898,9.85464447128518,STOOP
1.3,-0.0252657581330968,-0.0663460213744009,0.0043572640701274,9.17259496165746,1.63277476143906,1.31352567584202,0.0511733341706482,-0.0089444698557995,-0.0223904372964458,9.5825172579661,0.140672287740182,2.02851694346383,-0.0342957100115844,0.0588347399428199,0.0366772804937647,-0.205111196782232,0.562568418282896,9.82475544305246,STOOP
1.31,-0.0847000300277876,-0.0424717657477837,0.02057367496722,9.43318765780828,1.25321196341726,1.65169167083828,0.037158263210171,-0.002952737759697,-0.0155264090539291,9.48320452999137,0.109539396035822,2.01062909484587,-0.0311758725769131,0.0465721277204411,0.0207675781728745,-0.18208270293924,0.572425500820388,9.80946094199075,STOOP
1.32,-0.125695228364814,-0.033944147863101,0.0197950416319914,9.58428018992356,1.01194900915201,1.94380730396324,0.0216964777099205,0.0047214631453471,-0.0093208675223093,9.38377094532532,0.077446444043664,1.99343447436586,-0.0289761475687493,0.0321135048840298,0.0155203821860758,-0.158331699952497,0.545772805276001,9.7620600249263,STOOP
1.33,-0.152564037841856,-0.0293311381232479,0.0233769113248338,9.8348937994103,0.655271581838786,2.19655662422978,-0.0019313556812132,0.0122591105986573,-0.0072754776524083,9.29681746670964,0.170397612190916,1.93356319737211,-0.0234268111732841,0.0162341933870599,0.0111611969667318,-0.108200420036463,0.571801960655427,9.76571093033273,STOOP
1.34,-0.145318070376865,-0.0162052938394566,0.0302058434819524,9.92478604205224,0.112849836176683,2.33492788359277,0.0027375040116749,0.0002025428650008,-0.0020271219887622,9.30894581957347,0.246215448342373,1.92280819269779,-0.0229856720713942,0.0061462128700323,0.0155044105692158,-0.0403880664493854,0.581982108628857,9.82459048782204,STOOP
1.35,-0.114744756717809,-0.0135528447989656,0.0158742889647927,9.95878910671358,-0.279545679074308,2.23674583147843,0.0082277200482414,-0.0129995275332103,-0.00841485529877,9.38394619520158,0.129935143295978,1.96212493880514,-0.0328094744345446,-0.006102475961946,0.0170589304662988,0.0047250284884604,0.612840765409286,9.896789311527,STOOP
1.36,-0.047402956301747,-0.0051421499874069,0.0068063479457192,10.0821829840578,-0.294153951934119,2.12833197339515,0.0097761161420753,-0.0162370001190357,-0.0112053141315753,9.59001785744908,0.0755448012529777,2.02430466238129,-0.0337696274708688,-0.0120809718663426,0.0263013504246579,0.102381476109476,0.616570328217481,9.92432737075259,STOOP
1.37,0.0272323909109344,-0.0061987908805764,0.0006783843807433,9.97836064576866,-0.216079175999965,1.94422678982065,0.0289899293180323,0.0106894265271366,-0.0207686318206877,9.91447164073621,0.204777078067568,2.11616144531409,-0.0242643649857328,-0.0132095896306426,0.0370458031597573,0.184053152972541,0.636831850016755,9.89663584050614,STOOP
1.38,0.0675423430134457,-0.0238111265749559,-0.0034692718003938,9.76132169596545,0.0861428970524153,1.64926542650971,0.0297615712389818,0.0228391451329108,-0.0232473016322856,9.95806516384344,0.376928265980023,2.29149473560849,-0.0304984279997403,-0.0166970336492473,0.0410200761557408,0.250195245842608,0.710103290663145,9.84595243476849,STOOP
1.39,0.0868994440069788,2.56262259969e-05,-0.0063243011492939,9.64403354590608,0.534719990292127,1.29182499650825,0.0002231006383938,0.0134714400100003,-0.0318440854646653,9.87284441133764,0.397153197896619,2.26363532179202,-0.0352993123221727,-0.018671740382287,0.0422077627004355,0.332771870533352,0.748227399614932,9.83438178178376,STOOP
1.4,0.0851784389396686,0.0086134721133569,-0.010645017418209,9.40179807039236,0.880828389405294,1.36459685094312,-0.0105280993284226,0.0233203918558727,-0.0317180841025136,9.83556932171869,0.370750278434047,2.29313507887472,-0.0392213750530198,-0.0197211091928041,0.0472840714808607,0.303442810810234,0.850279500630417,9.78874738674001,STOOP
1.41,0.0738439639183033,-0.0023702545790201,-0.00925999433647,9.37835650472129,1.0406064991957,1.40876850955489,-0.0309968972254263,0.0362682668242483,-0.0329653513212798,9.79684915121803,0.389375791501606,2.4136420510828,-0.037559468960781,-0.0117692734367884,0.0446272391886802,0.285621135295884,0.883463874362839,9.78424308491955,STOOP
1.42,0.0821668785840471,0.0006806472293526,-0.0132607047194342,9.44825707657455,1.07922728254877,1.32859022078142,-0.0453203428111837,0.0495645422277348,-0.0362135432641873,9.62818509621285,0.3007897024542,2.42181501491608,-0.0370100358041022,-0.0111887369443194,0.0379489239621353,0.242948203433262,0.901363908678707,9.76086004914168,STOOP
1.43,0.070897778209401,-0.0149652359168754,-0.0184560806852167,9.4328492648591,1.02916349246817,1.55994239023913,-0.0485736977867481,0.0458613902908026,-0.0328994012644474,9.48818492810027,0.146881233582459,2.29099995793434,-0.0341249234120761,-0.0062832091122633,0.0330867796200655,0.271510282700002,0.874140910596287,9.71355561917738,STOOP
1.44,0.0260747373538291,-0.0197748337264427,-0.0144586192083642,9.35700243138046,0.892904922143957,1.67516759304602,-0.0464919457959297,0.0323778053055935,-0.0359025934216432,9.36040015828849,0.0178939521399298,2.17988714446679,-0.036449088279744,-0.0087375950260959,0.031975988406708,0.267089962490239,0.78149680596278,9.66737290528819,STOOP
1.45,-0.0058421036635462,-0.034260791264604,0.0082072006222161,9.40322160239617,0.724045256155263,1.88310764310865,-0.0491960102100543,0.0185688670214559,-0.0362193320128019,9.29085235499571,-0.0072941897620002,2.08237617780285,-0.0409193378433594,-0.0146861827708586,0.0270605767867045,0.311871677395694,0.719332305135634,9.65898508094537,STOOP
1.46,-0.0548462697210919,-0.0042870368590635,0.0197902277777869,9.71430944334253,0.551204435346283,2.12939833612754,-0.0338428086539674,0.0262530068059796,-0.0400322904628866,9.3604925633139,-0.0727992836050438,2.12642448898321,-0.0387622429151519,-0.0093294664907069,0.0315700760718038,0.321258653631539,0.648885536248019,9.73436894694936,STOOP
1.47,-0.0536772539911976,0.0209304990329784,0.0141708129644822,10.0445766603728,0.513278218769185,2.30796970325163,-0.0317240226610831,0.0245029751100859,-0.0373198289002771,9.40151860570711,-0.139341191206707,2.1311734560954,-0.0318191130275395,-0.0038833745543197,0.0341824614495055,0.389196307442853,0.565744536302464,9.71246786096359,STOOP
1.48,-0.0424511691760492,0.0472286497836416,0.004222933081274,10.4004374385985,0.369326724431724,2.42579547735337,-0.0079636891360133,0.0270303705944116,-0.033650544101031,9.57424615561272,0.0438433266044448,2.36406187663434,-0.0225855193929072,0.0002574668458758,0.036485964598849,0.396781032783413,0.459829108265196,9.75536955992032,STOOP
1.49,-0.0341887289048648,0.0681523192170692,-0.002509937609496,10.4137796591375,0.269428546192428,2.48216330778704,0.036973225414917,0.0167156199188067,-0.0300806119425704,9.64333787755849,0.0451051806258837,2.5870388395433,-0.0112199099624904,0.0060124704349855,0.0418862934316444,0.419948847997394,0.418493866803006,9.72588014831786,STOOP
1.5,0.0108450042278371,0.0341443849216765,0.0038249720106386,9.91455254720367,0.448188672419194,2.16718281672849,0.041681353835458,0.0163905621894888,-0.0191120428257785,9.66229942621781,0.0006475868136293,2.60634972508013,-0.0043588646065985,0.0020859865601211,0.0409522118924432,0.447045742117893,0.393927738640857,9.67827019767803,STOOP
1.51,0.0505306952705125,0.0279370158134395,-0.002050900337063,9.46318855205247,0.524481080449967,1.79858461021615,0.0394504967653778,0.0196999983445563,-0.0183771035066123,9.55495470710509,0.0419649029525228,2.59350789460182,0.0017843759637226,0.0004649292824781,0.0500929527092524,0.403407867245142,0.433747567834556,9.67084528730229,STOOP
1.52,0.0718461586812479,0.0364691173714907,-0.0079532863551659,9.15253108580951,0.697231904859893,1.55286476442007,0.0541085509719475,0.0273075663269297,-0.0208230973720901,9.51690162986996,0.0449637247715975,2.50229117917448,0.0111410570822945,-0.0020712569043454,0.0475713182189216,0.38492484558385,0.507920308961936,9.69848727198425,STOOP
1.53,0.0834080260360404,0.0275182653591826,-0.0073651007330858,9.21428792068684,0.756587192516999,1.53145752161009,0.0505951796050363,0.0428309439009066,-0.0253134364193058,9.61401683869295,0.0113443018017249,2.46643931804887,0.0147282176040294,0.002929331159738,0.0485927034249732,0.369604757812553,0.562068821537336,9.67566544012974,STOOP
1.54,0.0872646455687372,0.047475267470113,-0.0167742389717715,9.39738565809396,0.785724057866503,1.60395162788016,0.0160215569710964,0.0497952086817036,-0.0220626471851216,9.57919738236174,0.0615294676673594,2.4332386742415,0.0186285014324542,0.0020931905459971,0.0428038113703614,0.370482284185133,0.60009126499525,9.70791534794134,STOOP
1.55,0.0890764515516088,0.0464972633698553,-0.0227239001783883,9.56640060994565,0.82927342908034,1.64877900955381,-0.0025777390805099,0.0383678939222676,-0.0149521242943573,9.53431678756938,-0.0102202611107507,2.32120742534555,0.0169006958353519,0.0040089979316841,0.0364437104965807,0.374938896036173,0.635845274775935,9.70589786038862,STOOP
1.56,0.0723261467217254,0.0491148057117536,-0.0186372782170557,9.78766310224385,0.862449391222757,1.7053398994966,-0.0135688228276172,0.0373555200198777,-0.0034569067937559,9.57148515853528,-0.126175735751038,2.27164062369173,0.0211324422039939,0.0171183163836272,0.033633781496581,0.395005194231086,0.655237140594563,9.7589980451469,STOOP
1.57,0.051307479932589,0.0757313066777257,-0.0196193531320285,9.92938086270397,0.918481345076801,1.93730275487978,-0.0372063526962846,0.0426373217906277,0.0087286143453095,9.67669226736192,-0.186374042698532,2.20141282209206,0.0204821674844539,0.0207762190622341,0.0291753084133881,0.393808025895901,0.675441546019952,9.77509305473851,STOOP
1.58,0.0462985940235911,0.0698951541230887,-0.0098778504293148,9.97318449941033,0.8935997109249,1.97191346181816,-0.0301641290891056,0.0374704468127139,0.0155243508617458,9.6272255766861,-0.162892677193864,2.05881956926591,0.016335983894266,0.0287947786898629,0.0272361695602811,0.411537848463181,0.658215130875273,9.79594257953727,STOOP
1.59,0.0696491213904562,0.0468684781152925,-0.0045282259594707,9.90752917874,0.809837700410988,1.67747718519126,-0.0163542154430219,0.0485814279325504,0.0111110764162459,9.6378531178719,-0.0596872138505091,1.93079051066886,0.0047073820446686,0.0345107076889061,0.0307633710390096,0.433136623908389,0.674377497494478,9.81494643211546,STOOP
1.6,0.0645106513475933,0.0480884543101548,-0.0101433239439901,9.80118039847994,0.705226361234257,1.59952132549497,0.0047313106869973,0.0514189244977028,0.0066020090154507,9.61234286214639,0.0356773105795725,1.91975869334845,0.0072434031765734,0.0396367482365893,0.0305894771213159,0.401969280416713,0.680328270014893,9.84650918983939,STOOP
1.61,0.0275505125302644,0.0264143457345251,-0.0119395369177011,9.60061298535996,0.67557155181542,1.7043962678951,0.0238283772109602,0.04050790503815,0.0004205878396755,9.60206607069123,0.204125754718628,1.98501693629313,0.0015126050704515,0.050910769545827,0.0355320475106119,0.374570481027134,0.720300519038278,9.87614936055681,STOOP
1.62,0.0259830689110559,0.0084100026896966,-0.0095929038576486,9.53080377307803,0.828911153914913,1.53989830263706,0.0322774167711209,0.0239326589630114,-0.0046212337389309,9.68171826032059,0.308103922421791,2.07711629998734,0.0016639422306388,0.0479817749724656,0.0321254890025379,0.357922114968512,0.691051841991272,9.94674187324253,STOOP
1.63,0.0376887916608238,-0.0148633086217051,-0.0059762283239601,9.45440965626591,0.752595531798797,1.35319721524045,0.0255773076421187,0.0103432754510828,-0.0138624319473201,9.73595818236083,0.467087753204459,1.97401187320603,0.0029473257214534,0.0524036127472179,0.032742427310997,0.329543143552876,0.71255195891823,9.96021866678449,STOOP
1.64,0.0175767301190926,-0.0160705280035316,-0.0029946605081855,9.47200347924098,0.658975114127207,1.44460308351614,0.0167634255116522,0.0102637504347951,-0.0201119759271919,9.67949602194047,0.487351606975051,1.98436190529851,0.0035167972955594,0.0530062219078962,0.0260726929187829,0.283446805518382,0.695758723322686,9.8700489992357,STOOP
1.65,-0.007606421363964,-0.0191199458795266,-0.0007639251826043,9.59816349972466,0.722399617995318,1.59866296350083,-0.0039025588959927,0.0009020748698358,-0.0225809139834668,9.63954236065002,0.433722979099395,2.04528077375548,0.006592960575705,0.0549985321432402,0.0178201297410062,0.206126973424963,0.705479294158104,9.86158047699951,STOOP
1.66,-0.0225956080035254,-0.0175311925514206,-0.0026555889751208,9.74619379792769,0.750751303472403,1.72624487567352,-0.0375754099674705,-0.0070699609626887,-0.0299486086546802,9.60874422606593,0.429216473020255,2.12728977502588,0.0067489615698745,0.0520751492122181,0.0144161250551922,0.133029462365991,0.731252492244021,9.83493424677124,STOOP
1.67,-0.0122085796295922,-0.0123816234052268,-0.0017319209147185,9.87479400878323,0.784336751035918,1.74140007691923,-0.0594550717837826,-0.0060812873087496,-0.0342686929148665,9.71039245671194,0.44151231968467,2.14395213667101,0.0052769706647382,0.0585590682287445,0.0074788926746753,0.0546963419646121,0.704517650310729,9.79400345671632,STOOP
1.68,-0.0298485210610272,0.0133309383261561,-0.0082794369439693,9.87718989699015,0.694570023713713,1.90617092059457,-0.083550599809542,0.0101391418643676,-0.0355578117940438,9.76663585257138,0.395681903505972,2.25591805735158,0.0125306452551404,0.0562696121797297,0.0025944649927828,-0.047470896950773,0.699484967456958,9.76621547801146,STOOP
1.69,-0.0254680286754114,0.0117263968716515,-0.0114172453151793,9.79953433006913,0.642145986308504,2.00301266773383,-0.0895889494882874,0.0177899625854989,-0.0211067204732929,9.72262661256757,0.272468826832025,2.17303219791092,0.00771478664606,0.0543124818156937,0.0037668318792857,-0.0831486716915386,0.596179407102959,9.7005612174552,STOOP
1.7,-0.0030278992108108,0.0108666427095972,-0.0110141886200632,9.6024149292357,0.662363241752994,2.08655539467424,-0.0863950319130544,0.0212131195852622,-0.0175806739986308,9.60607593969987,0.210904080168554,2.17007515393666,0.0043021192442287,0.0482756452569755,4.5346192806e-05,-0.180812143437535,0.588398648094131,9.63840176657371,STOOP
1.71,0.0271868063237948,0.0214009451372262,-0.0115461599101837,9.53504378559442,0.772575330708419,2.02535204441768,-0.0823226827328547,0.021304164123218,-0.0154844158325714,9.45564126822409,0.145684387256829,2.16139994109409,0.0040613594512566,0.0437031249498629,0.0006164710482126,-0.241439936435572,0.581625330954712,9.68471270314728,STOOP
1.72,0.0349571599423053,0.0450396348971914,-0.0162194142197721,9.5644362722563,0.765407647558814,1.88522650322918,-0.0698919804465105,0.0441654190278185,-0.0148251910626308,9.43202305453543,0.0656981664322623,2.24350697559332,0.0119184864704992,0.0340279816070977,-0.001206303866643,-0.313816046561123,0.570923700478051,9.62536354621024,STOOP
1.73,0.0172525008199068,0.061560032730928,-0.0239022551453522,9.51980074348896,0.884172154110219,1.88181824882614,-0.0559822333517203,0.0655110458252075,-0.0169077044199053,9.40219849142461,0.0138586243714475,2.24076034128323,0.0115809902103353,0.0182599940257957,-0.0048640413600108,-0.31559377585628,0.608674475348012,9.65749247622844,STOOP
1.74,-0.0082842457645807,0.0657245569537203,-0.0250279478887123,9.46817343404034,1.03305313663733,1.83446890552786,-0.0641087883000767,0.0892370135177519,-0.0164524967944385,9.51589428576136,-0.0256484714133902,2.31707990288598,0.004231323570506,0.0111992830173106,-0.0035211518751387,-0.320561330640402,0.630214920474188,9.70775259682099,STOOP
1.75,-0.0276748483038403,0.0745618800240923,-0.0228554820208297,9.38490701910403,0.935815423858905,1.81354420262696,-0.0631718469948294,0.121882335377787,-0.0143051547580116,9.57638436794636,0.100851791069009,2.39829000892747,0.0063710300981616,-0.0069136644186561,-0.0101657569282376,-0.546412175838657,0.59027194548199,9.68495537458276,STOOP
1.76,-0.0620870436888509,0.0823874763516266,-0.0284108595984737,9.48512213529979,0.912740823469173,1.80297799927684,-0.0567197835957984,0.152928138981373,-0.0093820164955101,9.72839233968591,0.157959954596873,2.59902415699192,0.0031409839565194,-0.0238508206392974,-0.0075637038713129,-0.458951650587113,0.68387253285096,9.68804547190153,STOOP
1.77,-0.0916954365348967,0.0962420078886686,-0.0316882558307588,9.57642170708876,0.863861934089456,1.91035277034864,-0.0602275309018748,0.166501893156077,-0.0070587084126571,9.71016014988306,0.156635219034167,2.59469785251269,-0.0052590910901927,-0.0307791831879919,-0.0074162887913496,-0.492791070136131,0.657623431185081,9.75561059955861,STOOP
1.78,-0.0949716992724926,0.0924648557535734,-0.0327652551615285,9.72742225843697,0.608859123229029,1.97730474756004,-0.0602275309018748,0.166501893156077,-0.0070587084126571,9.71016014988306,0.156635219034167,2.59469785251269,-0.0017547321634156,-0.0351370908076432,-0.0099185320050535,-0.517540888433465,0.662805358766044,9.78707315122944,STOOP
1.79,-0.0796276876913395,0.105607034133193,-0.0407562586958413,9.83118981857002,0.552019229597838,1.97227758044831,-0.0759945039856351,0.17761159306529,0.0008305901167852,9.82395673756254,0.0931831026982531,2.37347418071489,-0.0051792064777104,-0.0430376826790664,-0.0143431827845645,-0.505953871359014,0.632574184947842,9.89484162590834,STOOP
1.8,-0.0614628099920849,0.111389213515862,-0.0532644168570665,9.79765035930476,0.563777655735146,2.12621639213393,-0.0832324921438205,0.194121817320109,0.0117077155744669,9.87790765815638,-0.152083385075804,2.20144189857019,-0.0071009044508578,-0.0438175508148536,-0.019428843885121,-0.522920552860023,0.55265582570146,9.98552504471698,STOOP
1.81,-0.0625484528217515,0.111653384697401,-0.0606771118292429,9.79550038505939,0.615255026254973,2.07641354249138,-0.0709288017764277,0.216777089337515,0.019323402116271,9.78196611603847,-0.156744147038553,2.0472808582862,0.0015868099355216,-0.0563325589964407,-0.0187843138866177,-0.486422626464241,0.501049217589639,10.0801064133417,STOOP
1.82,-0.0362242443009045,0.124222912797255,-0.0648965887829283,9.73962974620685,0.588774144806231,1.99496130706532,-0.0513048461100803,0.215186164669505,0.0346743372925314,9.60028425716712,0.0009398474056396,1.88969949290868,0.007116565149724,-0.0684518366624211,-0.0217300846497387,-0.473824428898777,0.441503107077068,9.96351954860342,STOOP
1.83,-0.0461858593123897,0.144625195464546,-0.0631889748611437,9.71236418948071,0.492303167948513,2.07561291513225,-0.0249669791327775,0.195647364493732,0.0353551278340907,9.29303891566287,0.194021311826611,1.72769745828828,0.0158715063786135,-0.0932508453915766,-0.0280284095561112,-0.514384961501227,0.4303520214521,9.94196207551126,STOOP
1.84,-0.0462988760254168,0.162102349100768,-0.0709726111500929,9.57770975626593,0.550587850835695,1.86632819734841,-0.0264759152354492,0.15927215849914,0.0377864625351159,9.14173996133537,0.297898647623201,1.72470917005879,0.0145493472462696,-0.109487856846455,-0.0203651631523081,-0.538763219655688,0.540359617452097,9.93079785478956,STOOP
1.85,-0.0157508026902164,0.168594159981502,-0.0728087443336202,9.54560510837949,0.759859609787226,1.63879036417146,-0.0474223929236404,0.137099878128939,0.04974331854002,9.23336921879483,0.250069214713774,1.82302558744822,0.0099483436021774,-0.136578311513181,-0.020528569899412,-0.523600817588148,0.669724877843112,10.044289341584,STOOP
1.86,0.0189775941661404,0.184325942778509,-0.0808522059534187,9.50614821545037,0.989377464838753,1.65158249718578,-0.050520151256246,0.117972774026511,0.0505331753667332,9.22896735328904,0.197989716223211,1.77842105370036,0.0050364606790443,-0.156002721857759,-0.0131960539892478,-0.514358960871251,0.828429748980316,10.0503759492451,STOOP
1.87,-0.006245699386759,0.180764228506384,-0.0838768505970302,9.40205145129703,1.06678533265713,1.80920552596853,-0.0471058759040082,0.106176877049987,0.0482417687483474,9.23338463895675,0.194970378269552,1.75500086283352,0.0076320581194706,-0.181199173969637,-0.0016385703466891,-0.509307991968338,0.879602810379723,9.99405681103093,STOOP
1.88,-0.073878457348241,0.180266540254059,-0.0845343702014779,9.50139725011099,1.05576497922271,1.66751459204296,-0.0584204557162213,0.112617071883975,0.049513543741008,9.27686319270845,0.146759920328091,1.73543358319292,0.0113154691912774,-0.191042739864977,0.0042140664457849,-0.558032275715263,0.844116518456734,10.1124089759811,STOOP
1.89,-0.0978810936542719,0.159481073390265,-0.0830798279108086,9.65074497353307,0.810820089084004,1.37421201925634,-0.0227335334029234,0.134702045258318,0.0523238362973711,9.44846202823111,-0.0722485651532574,1.95819965824493,0.0353897136744572,-0.198035877428203,0.0023353397800839,-0.518788701199651,0.711219371560839,10.2294883298241,STOOP
1.9,-0.0783601325814998,0.144596004186387,-0.0753873113003892,9.91281567605918,0.472077686440536,1.2526703269392,0.0223517409854214,0.150644892997089,0.0477021395531257,9.71056022264953,0.0039997154735507,2.38037519728218,0.0799418596218683,-0.206476890590894,0.0038018022729015,-0.467296831187903,0.494721495593966,10.3712390014911,STOOP
1.91,-0.0596801395569043,0.130916646310614,-0.065009958294905,9.92003478653998,0.235519272932842,1.27334403121657,0.0412626142841476,0.144846144171782,0.0418640024053643,10.0896650604495,0.441064293024062,2.7464836779271,0.08655152879677,-0.220062592908691,-0.0007783034543227,-0.375492482151747,0.304547879961044,10.410699236077,STOOP
1.92,-0.0789967425460585,0.104311242624444,-0.0682716287955566,9.83354859008992,0.219533731757986,1.1489408587977,0.0320762283923517,0.153541059333367,0.0356959710198933,10.2276277162373,0.83391406746307,3.0108903520351,0.0981386188826786,-0.241391567138731,-0.0148171952340234,-0.318226626175757,0.263241788262456,10.5051683912766,STOOP
1.93,-0.12443880860154,0.0988880898705593,-0.0737463420986143,9.77905206151199,0.409571477824545,1.14546016423676,-0.0218627915048,0.153367697072476,0.0328719961484225,10.0980338311556,1.11427956511391,2.9869280844657,0.116274141003428,-0.283229069850404,-0.0210105574424687,-0.290030816116248,0.292834798336919,10.5217287641697,STOOP
1.94,-0.161193100325349,0.0918946494051463,-0.0739769138684205,9.73538595784278,0.446354527466319,1.39504509018931,-0.0953540859696452,0.157274969488953,0.0370959832147749,9.70866002769631,1.2878938324268,2.5521094609037,0.121626891776285,-0.336816452020488,-0.0186521855137769,-0.346455770793439,0.425191567680834,10.5745731233885,STOOP
1.95,-0.167009533742627,0.0938699526196763,-0.0662922886319801,9.60416021188173,0.497973161724194,1.54738124727044,-0.129908583223756,0.160923864147134,0.0430414220059236,9.4088848400608,0.88399681232342,2.0401652142787,0.118388028301165,-0.392790294945309,-0.0119868850417971,-0.419529323345467,0.521260735127874,10.5591911488562,STOOP
1.96,-0.145745055917125,0.0862235720347078,-0.057700677770662,9.46827283758165,0.493553208533304,1.67563421717501,-0.126064367793078,0.166457315017822,0.0419269749118703,9.32988949981593,0.316339344869417,1.82351818371858,0.111426273777727,-0.445435633777406,-0.0008273665389331,-0.460272026758179,0.669078605704291,10.5946861771254,STOOP
1.97,-0.121633894602597,0.0892043369090912,-0.0562946207238198,9.37125101279622,0.403446496322271,1.76624242383441,-0.104604439843717,0.129987242617116,0.0271759968561956,9.27064903961374,-0.176385732174998,1.64847434237256,0.0853617469455472,-0.505363870626086,0.0133286671769116,-0.342735261835414,0.828549443015855,10.6065711266724,STOOP
1.98,-0.0893204734990792,0.0794087326236102,-0.0553074777412443,9.26234643680261,0.641572616388477,1.83055297000409,-0.0631197691267453,0.104766818732336,0.0099444217405015,9.11555356779707,-0.452484074412051,1.41307878443753,0.0551845930440288,-0.57240175952864,0.0304628429670946,-0.237079307497651,0.942798324103572,10.4808845141523,STOOP
1.99,-0.0467048187919072,0.077932646349241,-0.0580187492740273,9.26585167260982,0.969994754481247,1.96832201772464,-0.0066180932143269,0.0857716271558025,-0.0161939149665962,8.96150020816843,-0.300334117771763,1.49033716845182,0.0306514017869045,-0.631045277924826,0.0350281295818932,-0.184471915691536,1.01307216862555,10.4062244978496,STOOP
2.0,-0.0212440606932137,0.109768595740857,-0.0460605073146518,9.46517831880109,1.32120146478995,2.07088608005197,0.0388242862205375,0.060334669591885,-0.0277989576650534,8.96106367832329,-0.144916009440123,1.84445244638014,-0.0081472330063452,-0.699325651807989,0.0353097520978428,-0.146276883966458,1.00728869391936,10.492611770275,STOOP
2.01,-0.002851440972239,0.134115726363112,-0.040119099147726,9.65482674780316,1.60682940828965,2.2525009793476,0.0279828879223632,0.0480421960520892,-0.0326042593144307,9.08357809853737,-0.121743594264214,2.17668793518319,-0.0141343923030911,-0.747079921958523,0.0405406232580559,-0.155923209445649,0.912879565650263,10.4967679484081,STOOP
2.02,-0.0078221262644476,0.135272475099372,-0.0300806888969299,9.79861705371147,1.82767721637975,2.11683438950861,0.0216614625207075,0.0277918424025122,-0.0162892848524861,9.29438333874035,-0.16513508219659,2.53839667472763,-0.0035539216568592,-0.792929151323445,0.0358525626571489,-0.113761682798708,0.836714816752019,10.5888864066028,STOOP
2.03,-0.0363055562197228,0.103523605840563,-0.0222570362187212,9.69844138533334,1.59439378572075,1.71159727937531,0.0194563566862243,0.0197939153104092,0.0011937227102876,9.55991772514753,-0.162473278568179,3.03749942698194,0.0051909637322246,-0.843629622875497,0.0350453482102296,0.0009811754432221,0.678475722115283,10.6206734310069,STOOP
2.04,-0.128695429504669,0.0738064486417132,-0.0209458164983206,9.57118384191967,1.4718098001647,1.45170461964329,0.0044444923330584,0.0135179123744177,0.0101028909270836,9.80503620202587,-0.0839829517752739,3.43155563678338,0.0229322385740132,-0.895692876347959,0.0318310213343342,0.13577784917985,0.621196650079158,10.6087439877674,STOOP
2.05,-0.231227659060098,0.0454644275150471,-0.009735165633786,9.46087276645149,1.43236996649658,1.36700424973368,-0.0098957175331745,-0.013070076701096,0.0095664589903833,10.004103272872,0.0381860454943605,3.35821467469783,0.0332545596570137,-0.951005082014863,0.0294112568083252,0.40703913623993,0.612570970511786,10.5241003887116,STOOP
2.06,-0.286653687506038,0.0232386928645665,0.012741633830531,9.43177722361626,1.27069738202002,1.41445171312305,-0.0359816953497251,-0.034646019537449,0.0046861284917309,10.0599624526712,0.0522720896595357,3.17394265999442,0.0474972490435449,-1.00740204543973,0.0359600287806155,0.58803418181065,0.633031739057349,10.4146256457597,STOOP
2.07,-0.307342892454626,-0.0006462015897541,0.0352915542470183,9.46875012806784,1.03966825579476,1.64585467968684,-0.0629218544179019,-0.057180128263873,-0.0146125235815291,9.901075428352,0.127782142517837,2.80638453000653,0.0576514108490771,-1.07100428600681,0.038599828391108,0.775394866006106,0.673035378772795,10.317853434544,STOOP
2.08,-0.302286504945477,-0.0265315681937053,0.0481041147330714,9.59822145426172,0.757085323686168,1.74707198132283,-0.0549358566458066,-0.0901974929090021,-0.0399350565618508,9.59474569750634,0.27773733806342,2.18188237196397,0.0557265218991109,-1.13516552640374,0.047691114814731,0.923837126312854,0.756419434544576,10.2493156326333,STOOP
2.09,-0.270616817519653,-0.0520671695744757,0.048718084234457,9.56416880031205,0.306202078543193,1.73201198479784,-0.0015584736395278,-0.116385893092091,-0.0629536386999593,9.21417369655472,0.256688674304479,1.89775038572022,0.0536138927978946,-1.1808043076766,0.0532915655513014,1.0981657552458,0.817744464329182,10.1620254234966,STOOP
2.1,-0.228386661764731,-0.0734746009350733,0.0440826937598321,9.5642632129833,0.0714640612462361,1.74054374950813,0.0417392736630731,-0.138188222692933,-0.0773001342639593,9.04742695808293,0.121159429902609,1.91147198896501,0.0471833293284839,-1.23436486920657,0.0618006430937619,1.2486818748497,0.862968547125152,10.05642682237,STOOP
2.11,-0.177104901584309,-0.105340380769667,0.0364275323748742,9.51217771478328,0.024911777776094,1.77840495030281,0.0623231062088235,-0.157340355960965,-0.091604193341171,8.91642842754311,0.0367385555778166,1.98766856822489,0.0097058061610192,-1.28341345430765,0.0684235353781424,1.41058078877854,0.822661480563117,9.81595986223805,STOOP
2.12,-0.130245913472033,-0.129641880878216,0.0379216857659928,9.4286549877612,0.0811506836889394,1.83695467167816,0.07175536092437,-0.169163589853782,-0.088941547589872,9.04875264756321,-0.0282336315312653,2.24024699503983,-0.0109791365996786,-1.33451942275605,0.0734866397543728,1.50895423312581,0.759413345266866,9.83862046494095,STOOP
2.13,-0.0955259052322631,-0.145868825878566,0.0406206196623323,9.32540285979899,0.222900080432694,1.90394285107958,0.0771113676360411,-0.158921188599114,-0.0802994708463254,9.32094748871408,-0.0576996681978527,2.57541202773042,-0.0151724958326643,-1.37602009121655,0.0752620068669934,1.66258540320046,0.719663502075375,9.81898223963165,STOOP_UP
2.14,-0.0708888057821691,-0.130408045208659,0.047382259892867,9.27731723645242,0.400425281929339,2.19357934036303,0.083845509594776,-0.160672027496247,-0.0733327114542781,9.53997960594374,0.0378416368839962,2.76775918200273,-0.0162743224170226,-1.43213980656604,0.0764291146022469,1.78190880638798,0.699405926299971,9.58922592104343,STOOP_UP
2.15,-0.0723265196829565,-0.11522775304899,0.0543678625368708,9.33695461635285,0.696836943471144,2.51710378792733,0.0638730168377542,-0.165690188565517,-0.0582910764807232,9.4522958976398,0.202001340287034,2.8692542419055,-0.0180952213780817,-1.49225254014486,0.080902534118244,1.87488143490366,0.73395765754667,9.52932770775072,STOOP_UP
2.16,-0.0708510521994389,-0.113000856567688,0.0556477374911086,9.4061162455423,0.92389887370996,2.84510065117368,0.0207284183849392,-0.185660222094114,-0.0408288947513278,9.14868849561634,0.165938250546832,3.00174518823834,-0.0182361039080645,-1.55454998275579,0.0870005897542627,2.03201684332206,0.76553091111832,9.33835298965343,STOOP_UP
2.17,-0.0538976091043701,-0.111528095879199,0.0570926623366802,9.38160444444318,0.975710748029527,3.04491240081957,-0.030499904872762,-0.195650888215456,-0.0218872130719675,9.12526950290789,-0.115808735964597,3.18683107274692,-0.0328846771640881,-1.61655067456828,0.0869611044672481,2.16106630454188,0.781064918161171,9.13129747623928,STOOP_UP
2.18,-0.0532407083168235,-0.108129319359831,0.061070802651534,9.60520394288145,1.07845735095797,3.30341456833277,-0.0556604181920824,-0.20225773037549,-0.0131164607695186,9.35299233882886,-0.19882820929665,3.34492444498743,-0.0234094441912063,-1.66152551817767,0.0876977744768377,2.36957751126699,0.775695249098788,9.15598163168305,STOOP_UP
2.19,-0.0518330622314834,-0.093927577302359,0.0538301713559111,9.92117623457838,1.13599202395933,3.47634818097145,-0.0716863084598716,-0.205766717203299,-0.0218056562915885,9.56185090816305,-0.164024784812934,3.54193515600902,-0.0093180057844886,-1.6999137684334,0.0837198507172806,2.53353902047354,0.697774588754524,9.08438576710858,STOOP_UP
2.2,-0.069379759030561,-0.0930487196937785,0.0495192940070716,9.95679700011599,1.33026236695068,3.59736779677131,-0.0986496317403307,-0.19569419301885,-0.0337558348069558,9.56625058476728,-0.125349265502498,3.70105488660508,-0.0074959613131044,-1.74042557658553,0.0774222521041543,2.72803957676705,0.686384318031921,8.83901324959042,STOOP_UP
2.21,-0.0499863387714201,-0.137514242002053,0.0571678537329486,9.52701717373564,1.37565833065647,3.24892692677766,-0.0824370532354605,-0.195247995552592,-0.0580310121014765,9.33421504932571,-0.138541753869999,3.46172513827233,-0.0072993453524459,-1.78903240189492,0.0661636777663222,2.9259921082966,0.658587113641395,8.76520792777221,STOOP_UP
2.22,-0.0383200602022156,-0.173629487319531,0.0795414598102608,9.17814951625294,1.13030168209715,2.79580887400503,-0.056551511658751,-0.200049658559273,-0.0740741761737999,8.98547265802709,-0.0188042434161566,3.30035945558544,0.0072647985688772,-1.83443300849841,0.0643681532467025,3.22292930617821,0.667764454553175,8.64278359524779,STOOP_UP
2.23,-0.0448774171848129,-0.170563356933565,0.0899826434551529,8.99618113090031,0.962914137234799,2.47189325264789,-0.0619421715614853,-0.209792186758164,-0.0861091103011411,8.81339649267026,0.0805075084596994,3.43341520943011,0.0339331619697754,-1.86264634542295,0.0515477235405942,3.46806176063465,0.716657972721949,8.48488620392352,STOOP_UP
2.24,-0.0362392914741746,-0.182136567024678,0.104513727922992,8.97407652319949,0.894105776119048,2.37584421635702,-0.0968391182840487,-0.197261265950272,-0.0863819097179997,9.02579028438773,-0.0570805733211798,3.72153784516462,0.042676952583529,-1.89725975614087,0.0565614932161781,3.68124000459095,0.751853296773891,8.31093932946345,STOOP_UP
2.25,-0.048512664853485,-0.187775913482936,0.109889711333974,9.10837760948056,0.810262001039367,2.72427976966319,-0.137543666494074,-0.201971089037057,-0.0906660985219044,9.30573431940048,-0.152015369308415,3.81298506387468,0.0311697132428652,-1.92473915230535,0.0617029286060834,4.01919681680467,0.750195611595026,8.24137716149021,STOOP_UP
2.26,-0.0477938167028212,-0.191776424061623,0.129064411358931,9.14960382406798,0.602751758077762,2.92700640655361,-0.149920773397654,-0.212520360113193,-0.0925883291855744,9.58360533229742,-0.0190749883777212,3.39340474245572,0.0288190533843584,-1.95419589269419,0.0700172620008914,4.39174688884395,0.802960503879223,8.07300659463619,STOOP_UP
2.27,0.0116446898499422,-0.199266550975853,0.147525395917708,9.19238077702362,0.281218069718606,2.92216533807597,-0.136557538769326,-0.210911513357084,-0.0786746540801924,9.58330031637818,0.0326131208569108,2.98939438811091,0.0306915187712122,-1.98203341913527,0.084397180639985,4.75907581107636,0.761841993376843,7.84613120036902,STOOP_UP
2.28,0.0703633417121292,-0.175276109483489,0.16283526287269,9.3491672107265,0.306201197513483,2.97954354996263,-0.142023945929636,-0.203382437898818,-0.0621074528442844,9.49092964964509,-0.0233810727695616,2.56182053752997,0.0245094144288966,-2.01046322111732,0.100996109533224,5.14779127705787,0.817795099438706,7.71718642359271,STOOP_UP
2.29,0.147239080351814,-0.158053750446882,0.152093991482332,9.53193883849844,0.52523859691322,2.99876054529494,-0.166484322544328,-0.244442495927661,-0.051532434429252,9.21713803660665,0.10622180477071,2.34771940630042,0.0235875737791774,-2.02922926774188,0.121677611952164,5.48770540799207,0.853924481707624,7.66808995097333,STOOP_UP
2.3,0.200876152884277,-0.200345724575295,0.128008144114034,9.57486024564438,0.77890444697007,2.90867066057223,-0.196946221760093,-0.301743431482267,-0.031352064290975,9.17111901447827,0.0330873479970884,2.57114755485254,0.0388799641945423,-2.03803133906812,0.140063880315565,5.75372995035624,0.905870808856922,7.54283498737762,STOOP_UP
2.31,0.23149086974273,-0.223173342548567,0.0816420415026224,9.82869835915088,0.896037028556997,3.02089997216042,-0.216165730718679,-0.324432659929402,-0.0324100723649505,9.34279317222131,-0.0996046372845915,2.90751891054415,0.049170289765391,-2.03658510509872,0.146519576598835,5.97710525739918,0.949011714728591,7.31454162049914,STOOP_UP
2.32,0.250789479312901,-0.247485202312995,0.0548175047389054,9.9367809690359,1.20574008210632,3.04280357092734,-0.216294340582565,-0.34341236309673,-0.0509455487115127,9.48447838797287,-0.296920420356293,3.05383317851342,0.044445184753266,-2.04063710024403,0.151336518045423,6.11155693206052,0.915723550848752,7.10493439652619,STOOP_UP
2.33,0.294513487379059,-0.297513507305685,0.039566351968272,9.74030838081064,1.35411705204058,2.89008683463123,-0.235605859396688,-0.33919042059654,-0.0673936911240594,9.55497780815028,-0.149036272004711,3.09663714548408,0.0258894582855452,-2.04844844953635,0.154054623998862,6.20363988428907,0.881898457790947,6.87167586124293,STOOP_UP
2.34,0.369812291091076,-0.34684751178111,0.0458197367621426,9.33199969262458,1.38311855545101,2.5417927428632,-0.265773446220707,-0.3624281773898,-0.0637509403954014,9.55026186489243,0.256142093126927,2.88977401922896,-0.0143861493284153,-2.06663159226113,0.156562881733422,6.27646488546019,0.849520043005415,6.77885763761159,STOOP_UP
2.35,0.36720182480937,-0.357064917101539,0.07709260592314,9.18701161556268,1.30854378646136,2.35019852126236,-0.255447404340514,-0.399608026529212,-0.0577701406292088,9.51194306840091,0.42341891543825,2.82888311862208,-0.0415048800118348,-2.07793127904804,0.155807704825693,6.44684192682531,0.777939386712798,6.61768776663379,STOOP_UP
2.36,0.262624852152043,-0.363592880819714,0.12074961643236,9.20861289537484,1.11829672377521,2.33913008022093,-0.260041758963951,-0.427368486730718,-0.0467101237962291,9.63894073670723,0.352495941355004,2.887271332436,-0.0545793568989608,-2.09839016910569,0.151637436355055,6.63321620586986,0.794113617169255,6.35367433993522,STOOP_UP
2.37,0.222149751849865,-0.359650950980095,0.148336061787256,9.41846602716351,0.972795655606716,2.24025227609378,-0.263537959804818,-0.438634490138143,-0.0493321048342273,9.62237641585924,0.218096365671366,2.89870145926173,-0.0616964055712563,-2.10829728294964,0.151251077818304,6.74883218054741,0.861331681531689,6.15616008605769,STOOP_UP
2.38,0.247383311824164,-0.358943060565563,0.15218321214619,9.60685191016478,0.826076585707864,2.46868459701072,-0.286937126183091,-0.472957589545588,-0.0721316248847819,9.42537311562177,0.162885468700039,2.89231194013904,-0.0598614308820829,-2.11289767550283,0.140109122191719,6.85646133169637,0.894775612319523,5.96125728035756,STOOP_UP
2.39,0.308369008583419,-0.36106491542176,0.157486905056314,9.62828013856005,0.592210593950399,2.41954046851024,-0.376260565602261,-0.516149156437878,-0.0957620958106225,9.09370901026317,0.120241895998702,2.58823267876698,-0.0650749287577616,-2.1194769482897,0.136054172248247,7.01936142008535,0.886721226677598,5.87341681694057,STOOP_UP
2.4,0.340219974838557,-0.398070748268693,0.162428404698643,9.49724448540819,0.467586725779436,2.16183392342247,-0.458883213690463,-0.545806504180318,-0.109780874954404,9.12079370470759,0.146734773494823,2.28274199879355,-0.0627135383545265,-2.12661575045925,0.125239433800769,7.16461042797701,0.792562089893334,5.77929482010548,STOOP_UP
2.41,0.320365474136755,-0.422970255016041,0.169357298602158,9.45949858227952,0.582536047189784,1.97359634792334,-0.461859173438273,-0.567902656829697,-0.11652370195335,9.30394097172544,0.0728551485385265,2.19065764375309,-0.0677018770551715,-2.13729324708221,0.1212628763326,7.25904153903819,0.793187300099495,5.58087107428889,STOOP_UP
2.42,0.287996563290879,-0.443693726453061,0.172628112786579,9.5074313609702,0.698007901775074,1.93049285145949,-0.425843690524775,-0.566708280666776,-0.121172877882622,9.53077461916797,-0.0567275292727899,2.21497293890812,-0.0550526011623691,-2.14232911670052,0.116820284461752,7.36753841065707,0.784263363547981,5.32465297243181,STOOP_UP
2.43,0.272056231736228,-0.462958057079392,0.173196096729717,9.59249321804785,0.81716509793549,2.12218709016689,-0.377185861199287,-0.557443326775976,-0.117427076486757,9.61903657236938,-0.175934080594671,2.22313649053737,-0.0576798202555725,-2.15437652072851,0.114458195433724,7.52914644986701,0.63140503444737,5.18491850044437,STOOP_UP
2.44,0.274231976531438,-0.449109285634408,0.176364953939585,9.81634363798134,0.899579728989089,2.32913102925942,-0.358657251899738,-0.571070783815387,-0.116637861900591,9.60668136168517,-0.157364882392232,2.22030942328291,-0.0714836976377066,-2.16491247352176,0.106560491913431,7.70098598560529,0.552060689746015,4.95651188297712,STOOP_UP
2.45,0.302431255742986,-0.436762724183891,0.178901820743766,9.88620542085161,0.830488216168002,2.13934770699608,-0.361627742789781,-0.603664609989221,-0.119373401060415,9.56501526461388,0.0393583655977511,2.14981745971232,-0.0645277069060835,-2.16924490318595,0.0956659013763853,7.82650475977872,0.571515525944595,4.88276142741583,STOOP_UP
2.46,0.36573517376466,-0.49362998044176,0.180800862868742,9.58031069017817,0.43335745149651,1.7948991066884,-0.384858805270987,-0.622437118256291,-0.13043887944978,9.47839122321361,0.0368660037330148,2.04698314238477,-0.0534963924521153,-2.1645388364643,0.0840690777560321,7.96332786432801,0.63811643992667,4.76921512030715,STOOP_UP
2.47,0.387342696676651,-0.529307787374445,0.175346496257319,9.42335030101367,0.121710198673662,1.66672003700138,-0.386801577768608,-0.644956341837848,-0.147092675273504,9.35660977891741,-0.116518560729877,1.93606838919205,-0.0620975190120719,-2.1548684009533,0.083210047751764,8.07789565923906,0.646848906727561,4.60651907834743,STOOP_UP
2.48,0.417797148429868,-0.53322405100385,0.18733047344562,9.41918742632178,-0.0209487713524676,1.51728047613048,-0.403038287853363,-0.670936827741185,-0.165670328792316,9.45152189662023,-0.163531705929811,1.80180804838068,-0.0713196358859205,-2.14514761803908,0.0802532793800271,8.04290711927597,0.618434781273838,4.58443863878293,STOOP_UP
2.49,0.48897349713631,-0.550252809850535,0.200742639752865,9.48063133211301,0.222156710266353,1.34566246579361,-0.412153044719575,-0.698838215267686,-0.177784750208658,9.54360699046121,-0.0649999974831619,1.70268797510171,-0.0706766424013034,-2.15599793210357,0.076696107173584,8.13225257695435,0.608715671740969,4.29661083304421,STOOP_UP
2.5,0.517469780082327,-0.547300826704133,0.196802687173763,9.50935037256112,0.44399213091991,1.34900318210553,-0.410775717779457,-0.706607922244598,-0.184786557312133,9.7034341143999,-0.0208597836766709,1.70153019460355,-0.0668756168172985,-2.15376887878177,0.0703161065771769,8.17946574995026,0.527539004859237,4.19800234994493,STOOP_UP
2.51,0.527417520030592,-0.530799065190466,0.186755454612722,9.62278932721518,0.420197015890343,1.25261164325046,-0.419221201136943,-0.691135517535495,-0.17531194747262,9.59926012768536,-0.0454892573174329,1.60469091025421,-0.0399748709103917,-2.13667886460141,0.0661211252213572,8.35835463558574,0.488220629384579,4.079814476832,STOOP_UP
2.52,0.528153782870687,-0.537637932630618,0.181598413694232,9.5905911933065,0.589055112260475,1.28340074096853,-0.440997020933647,-0.712926611188529,-0.182429251353396,9.46507294558115,0.131773460861557,1.31348153614806,0.0040939447418794,-2.12210411154162,0.0650388224564322,8.46198082819118,0.40012634294919,3.83552493617754,STOOP_UP
2.53,0.564944267104245,-0.566837368918213,0.194599477616473,9.66188514693879,0.779379266691455,1.2631084534442,-0.427638679346702,-0.719710505842466,-0.194132665633959,9.59481874253474,0.202632997059594,1.13776600086628,0.0251725135963906,-2.12494239081145,0.0634289138857846,8.51688521547338,0.341035595710263,3.7430743831125,STOOP_UP
2.54,0.615714953312674,-0.572810696564333,0.191555740036899,9.75809859852956,0.60890043974345,1.12384887763233,-0.432166876158673,-0.719653283764967,-0.196214340660234,9.62685229903388,0.067409310945913,0.93893362626523,0.0470415840118621,-2.09859180536553,0.0635507084820465,8.64607544109599,0.349166328424223,3.44206790089686,STOOP_UP
2.55,0.621549655969926,-0.605304316688028,0.198245349287269,9.66115880686701,0.526889213152264,1.13378161878381,-0.453779159575148,-0.75882432815136,-0.195120966840825,9.65066417374674,0.0330507930854599,1.0174585329003,0.0708415594527215,-2.07351028055101,0.0620496583682866,8.69952888594674,0.437648997898726,3.38607469899537,STOOP_UP
2.56,0.591002861885705,-0.641626961094803,0.197733663681382,9.63815979562348,0.514798018356876,0.960102159359995,-0.468532915790448,-0.779370039384558,-0.207318675886783,9.58539201211358,0.21762618641176,0.921195344682868,0.0791804514826795,-2.03728904086641,0.0581579620754833,8.79375127499245,0.447000139686416,3.28571911828168,STOOP_UP
2.57,0.612070081126135,-0.607860731535033,0.202402228809933,9.75312995650964,0.637438924626499,0.551384133327233,-0.480916089366024,-0.787468117093566,-0.210332844846745,9.5550929437081,0.291425030557068,0.647166339430917,0.0992245115460185,-1.99947852519374,0.0528571784831229,8.68878253701501,0.482892669021233,3.28195610777293,STOOP_UP
2.58,0.644260463488128,-0.585250542928086,0.209822456474876,9.73094949896872,0.910844664918181,0.332002927191323,-0.490418255361858,-0.794578978365286,-0.220317659485946,9.60701754037121,0.355914956551221,0.493952734299998,0.113172430123066,-1.98775113942437,0.0542636415213391,8.80694014226953,0.429740936857164,3.12578630287081,STOOP_UP
2.59,0.62684136008323,-0.616448951640752,0.221081429577169,9.61253301283363,0.710767489793139,0.176481025793134,-0.492801714672641,-0.826547529404284,-0.242073308639467,9.60253693583174,0.299067572670742,0.420248500174955,0.131506488405081,-1.95558070846944,0.0523205039180043,8.9923951633927,0.470366613876912,2.81786376469657,STOOP_UP
2.6,0.558028335188007,-0.627440647901926,0.224203027886246,9.62233561066861,0.427379462988069,-0.0045526101034052,-0.500691306731326,-0.803259905528095,-0.254092496876891,9.73522965007403,0.251599215184664,0.520276942882278,0.132174498750509,-1.93571257412497,0.0522444224601343,9.01232079771313,0.513983928443105,2.78777164706835,STOOP_UP
2.61,0.530341772743921,-0.625825713302441,0.223987541416534,9.66489936030622,0.363060404401355,-0.0246793698493978,-0.509443277771638,-0.760768859383131,-0.248881211780804,9.63373219508225,0.271409824047566,0.271738848120249,0.14233782111051,-1.90298347552587,0.0552471247252568,9.06952949432598,0.431711749533004,2.74933288167661,STOOP_UP
2.62,0.553786353602948,-0.623501645493296,0.221373451497282,9.73740617063898,0.139111550807498,-0.388696901064283,-0.5416981948984,-0.773098397775097,-0.235441991476398,9.52267588422774,0.463334631221437,0.0458992916011081,0.150070922006194,-1.87488482594134,0.0603504209863088,9.22290829582968,0.445927528763244,2.77801152985346,STOOP_UP
2.63,0.606442777191819,-0.642091932491714,0.234150692187501,9.70709452487464,0.0042068274825173,-0.673844079875676,-0.613878380892526,-0.799617151443568,-0.233151973277877,9.63102785736855,0.781834853134193,-0.372959509666624,0.169520248751972,-1.85180257246639,0.0599814192322287,9.30352904906657,0.506597283322902,2.18278150946318,STOOP_UP
2.64,0.588308999319799,-0.683456739506508,0.249526688104896,9.75967201127742,0.0234712216608101,-0.495439449666291,-0.639778235041774,-0.813295558920628,-0.218927062364286,9.84327566448549,1.07305472654204,-0.698461111808267,0.184914120202848,-1.81213753563049,0.0615025809230867,9.39872188324669,0.530401361181661,2.34631757569936,STOOP_UP
2.65,0.605582483156495,-0.704583625220499,0.234574140792092,9.8238689281334,0.0063549054425469,-0.537371785828052,-0.641473613310803,-0.787337013797821,-0.201096919625112,10.0657569933861,1.1111309496651,-0.586764048185543,0.188209962392149,-1.74931136138634,0.0488253150876497,9.45203991138652,0.581064982901775,2.45300591164453,STOOP_UP
2.66,0.605582483156495,-0.704583625220499,0.234574140792092,9.8238689281334,0.0063549054425469,-0.537371785828052,-0.650494348291821,-0.745435524536187,-0.181984420435656,10.0281071719543,0.949581287969249,-0.342931775039892,0.188209962392149,-1.74931136138634,0.0488253150876497,9.45203991138652,0.581064982901775,2.45300591164453,STOOP_UP
2.67,0.605582483156495,-0.704583625220499,0.234574140792092,9.8238689281334,0.0063549054425469,-0.537371785828052,-0.650494348291821,-0.745435524536187,-0.181984420435656,10.0281071719543,0.949581287969249,-0.342931775039892,0.188209962392149,-1.74931136138634,0.0488253150876497,9.45203991138652,0.581064982901775,2.45300591164453,STOOP_UP
2.68,0.680597710426222,-0.715606468232612,0.221645958434642,9.80005553801675,0.16896454655482,-0.626115299927492,-0.678320056914973,-0.738989795799669,-0.171910313596302,9.80116135975443,0.775325694506615,-0.173622269672467,0.206887145550778,-1.68458859050145,0.0230251571092923,9.54590813086193,0.612317523975656,2.31569765060942,STOOP_UP
2.69,0.709755296751764,-0.733084400400559,0.21081061017433,9.85155770954973,0.158175956295829,-0.641600611619321,-0.667195777387037,-0.769144311022375,-0.17579307018499,9.45556785397312,0.517572005687406,-0.246513581309473,0.206887145550778,-1.68458859050145,0.0230251571092923,9.54590813086193,0.612317523975656,2.31569765060942,STOOP_UP
2.7,0.652192772931617,-0.705784494175555,0.191571032070163,9.78556552636668,0.0176040584576795,-0.566881456417649,-0.620394219620722,-0.817016626213601,-0.177591792049731,9.52307462508727,0.219560828629595,-0.246783387673634,0.277197829659799,-1.46659276314085,0.0012150403231177,9.62686141601114,0.475555316192463,2.14879280302645,STOOP_UP
2.71,0.585195551050409,-0.696231353769777,0.188664811357999,9.74590995739695,-0.160908750834389,-0.695107262039127,-0.601209767564275,-0.784381506840077,-0.162064720586309,9.84705311182426,-0.295952977766301,-0.0866675114461735,0.33665222276999,-1.31576330600517,0.0262584309620136,9.81389912096128,0.199502493055887,2.17133428894739,STOOP_UP
2.72,0.508692591805229,-0.646390171251096,0.191587185284238,9.97100758489572,-0.0602808864139619,-0.611324184240172,-0.537674746178981,-0.736651785285961,-0.155839175376176,9.93983998713783,-0.273350563136396,-0.316314835144747,0.33665222276999,-1.31576330600517,0.0262584309620136,9.81389912096128,0.199502493055887,2.17133428894739,STOOP_UP
2.73,0.503410354824911,-0.611881517023824,0.204573088028364,9.92702311544053,-0.162853458116794,-0.88185132735656,-0.453082877740077,-0.749706767481178,-0.168763571889475,9.6542072351364,-0.0751954170542156,-0.956030969695959,0.346355141463115,-1.27881668803388,0.0342277696629776,9.90412244482289,0.179372974242097,1.51364673912199,STOOP_UP
2.74,0.509222489589517,-0.613219089638922,0.22054529330663,9.89393907678251,-0.2860671103447,-0.894061120209646,-0.344304481428827,-0.741105132451153,-0.163194716188782,9.65431596640577,0.0873805068591923,-1.49516278504679,0.371426208717083,-1.20622111155172,0.0438470510765608,10.0031694870346,0.272996086547384,1.08127883175565,STOOP_UP
2.75,0.426738199796136,-0.590539694879015,0.229761338300762,9.81777635170042,-0.0746473771358518,-0.746828230433092,-0.283802811088481,-0.678616419446453,-0.162388604662862,9.57504172441324,0.580079553309,-1.45385392246577,0.424699258584426,-1.10814634315382,0.054304741577281,9.98197255719067,0.346649908036524,1.54357675919664,STOOP_UP
2.76,0.357902958088202,-0.569439687103978,0.230247141186619,9.72920623011425,0.302733000721168,-0.879559212553994,-0.268445061163601,-0.655431481108784,-0.175986888458481,9.5390294964809,0.921967057878052,-1.40044285469288,0.436581398442065,-0.963219506348857,0.0464332204479194,9.93653208512866,0.394347277604586,1.96061640023773,STOOP_UP
2.77,0.301994720985706,-0.522208504248301,0.208267033980841,9.69312141561989,0.459960959733365,-0.909071021331618,-0.222264738432972,-0.581027593278298,-0.181468060446165,9.76042255006887,1.04232548328925,-1.26321601166854,0.43118602845548,-0.855083538351648,0.0440018286904702,10.0099771668629,0.548209176549399,1.82629624142185,STOOP_UP
2.78,0.241572657138533,-0.476991930693911,0.179621530998051,9.79738174807202,0.296812384583678,-0.911946549903108,-0.14285949408298,-0.54137785769401,-0.201431744985024,9.815441325287,0.961209426657835,-1.21085331540135,0.430399419056256,-0.767631770098493,0.0361142260520369,9.81961924840538,0.728750171271256,1.89892475964896,STOOP_UP
2.79,0.112388037914824,-0.427487405012845,0.138456084271233,9.73534564826902,-0.192762818873386,-0.981004240576443,-0.0536855478278472,-0.560726420949277,-0.228757883501321,9.96018299901245,0.682121290274585,-1.30612025728925,0.374228833109053,-0.668433519351243,0.0361547050086079,9.63323528820294,0.829262929219379,2.23847569878133,STOOP_UP
2.8,0.0301318162137316,-0.398047077837366,0.129148485477927,9.81540346324027,-0.567074720888887,-1.06262315701524,0.0460926129722941,-0.5640642832673,-0.225482497489359,10.0111821751963,0.490007908487441,-1.47277991930652,0.316744864129703,-0.622578653547274,0.0302019125861057,9.59355421609362,0.776490034458455,2.37993362636674,STOOP_UP
2.81,-0.0065103557084134,-0.322079018646505,0.144270374251449,10.0836647815996,-0.566125901136039,-0.8897724432974,0.130248157948541,-0.523838493816633,-0.211754305102185,9.87663326340541,0.417216880312638,-1.53288612758372,0.289374202335537,-0.640073163836027,0.0253460669050422,9.57884873270118,0.736959803466871,2.50171751442382,STOOP_UP
2.82,-0.0101828754147638,-0.275951617265503,0.160380719569914,9.96945749693481,-0.439331534778732,-0.671467976096004,0.0870517164151642,-0.562681972922302,-0.223042241241063,9.84671185918492,0.0154854140177155,-1.65260172216822,0.262139915567593,-0.650689091283966,0.0252035086827848,9.57515323176321,0.663567166608253,2.26832546658842,STOOP_UP
2.83,-0.0165854617092553,-0.303086991996884,0.177922838660515,9.94094498153566,-0.261005387578228,-0.696303933234868,0.0582285462345465,-0.584044929250781,-0.239450357295668,9.94807953764537,0.0906233586115832,-1.98899925654526,0.26058241682386,-0.641856831762325,0.0169686216317558,9.61898888554275,0.576405357889796,2.05282517596121,STOOP_UP
2.84,-0.0282906286808138,-0.312259756236344,0.18639689784629,9.87570357238813,0.0256385748498639,-0.923449812508788,0.0919027149669846,-0.595759004737153,-0.248665189229393,9.71031577991811,0.41408365509147,-2.11631173737437,0.247335361076343,-0.615150968649961,0.0103284121683262,9.58452333955114,0.524343480097013,1.91359791281002,STOOP_UP
2.85,-0.0042883611788459,-0.345142989074933,0.190909689522657,9.83465403643429,0.196867768514102,-1.19285891082322,0.209068086172982,-0.598770566765193,-0.260853921761904,9.51716320338574,0.876801114121529,-2.33952486888393,0.229220814121096,-0.570653424467109,-0.0051993183266342,9.65942021442485,0.535997029596563,1.74071713511545,STOOP_UP
2.86,-0.0428168360224294,-0.364840692295843,0.179858955254822,9.8840430171295,0.286314345113713,-1.089874872871,0.36359198424706,-0.541855382664696,-0.267352766702431,9.49701351285702,1.03476158292465,-2.59351840998232,0.22878232508656,-0.548995395362209,-0.0111162701953237,9.73326239468431,0.481000696955033,1.58747166552436,STOOP_UP
2.87,-0.0857132255844399,-0.367691119797792,0.164152989326087,9.89191844575591,0.0736942892832448,-1.28050873512542,0.488177611087977,-0.531532445835561,-0.269141537526969,9.47615214876133,1.06095573479153,-2.11303182582006,0.273001905412903,-0.564072043332139,-0.0115565257948794,9.89817921585592,0.509172721023365,1.54050533414886,STOOP_UP
2.88,-0.118315429321299,-0.357653045263295,0.162364658711425,9.84828011664355,-0.160976296817771,-1.25982894201989,0.561562013339917,-0.505693575301593,-0.253589539285897,9.80083446614744,1.27168921739252,-1.73072760166842,0.338644254336755,-0.563777048690261,0.0137411406456492,9.94849758092381,0.669034077829886,1.32378495294063,STOOP_UP
2.89,-0.145114345721829,-0.321677467897961,0.14718067597608,9.87093738151961,-0.606745879678841,-1.09918996809349,0.581242008601078,-0.436504535678098,-0.224601556973149,9.94859656554166,1.74569305462349,-1.27466238332739,0.358850476984725,-0.535122485825875,0.0289690194610892,9.80861042351462,0.739024034276419,1.2647067239155,STOOP_UP
2.9,-0.109488544654825,-0.28831355361512,0.125304133116753,9.69470813759931,-1.52677052792652,-1.25006029360451,0.525938065013867,-0.41171776158954,-0.183861538631858,9.92079458329316,2.24771792401674,-0.991458448674135,0.29186646585043,-0.500428106378172,0.0338873739201438,9.8297900768438,0.972870097206974,1.54234193984287,STOOP_UP
2.91,0.0105631388141333,-0.277246304050869,0.112381496234339,9.56677311513016,-1.87025205980882,-1.45634546654342,0.445195053788808,-0.389189285718074,-0.154256853972019,10.0329108930074,2.61887593541095,-1.06905416163652,0.206141064449504,-0.466910448452326,0.0390248084702436,9.95168094636899,1.16917608275079,1.54469530996734,STOOP_UP
2.92,0.139353637198084,-0.266703760649379,0.111367545776427,9.59724142077453,-1.75576791523613,-1.48106650149957,0.280143370775029,-0.339623464718345,-0.119251312815719,9.98163165533043,2.69070807218426,-0.997193509481832,0.147032737670824,-0.438973062493291,0.0406829323028157,10.1214493981004,1.30839021734922,1.34192279441019,STOOP_UP
2.93,0.185786679713909,-0.245148643475118,0.109696114375097,9.72958481621636,-1.24738178408723,-1.58323082409919,0.109310073314612,-0.310687050869624,-0.0890415356743435,9.73980364392234,2.81765873132756,-1.38632241809045,0.091945359014081,-0.405346102540739,0.030867827858092,10.0072055260084,1.25627877713578,1.38739409150429,STOOP_UP
2.94,0.167351128753595,-0.251004437395721,0.105028226054526,9.78374823209148,-0.675308951198518,-1.92183516703808,-0.0383557039230213,-0.302202795690467,-0.0583334063982138,9.45886993348745,2.64081757775078,-1.54170571956585,0.0401164283606761,-0.388787626759614,0.0115007016673293,10.0258855321831,1.14280168605166,1.32832822658866,STOOP_UP
2.95,0.159314018884342,-0.247190563786688,0.0894653625581202,9.75364812334924,-0.163162332523706,-2.19749052087072,-0.16451704044046,-0.298964891945035,-0.0509705439309021,9.42143299917606,2.20186803718322,-1.72769070466657,0.0079339451630877,-0.365997615606293,-0.0019767882469014,10.0118974851546,1.05114011515786,1.15570950561568,STOOP_UP
2.96,0.131725654378809,-0.249946206981915,0.0871282664585318,9.53504208358564,-0.0463463965342057,-2.23078764731249,-0.25303530312488,-0.28180368845601,-0.0528165183821824,9.43284517328719,1.65674189034277,-2.04362261634339,-0.0318812980968947,-0.340011561313408,-0.0119525079924759,10.1579239117197,0.990106171877566,1.14184460801216,STOOP_UP
2.97,0.0261602317666691,-0.242600076355255,0.101801943874832,9.47318794704707,0.050341814479621,-2.16514885077448,-0.334947419361423,-0.262628432575484,-0.0555082998171868,9.43904317306857,1.13954278822892,-2.4437208242301,-0.0533179926532623,-0.305688610910802,-0.0347444865549142,10.1741457092095,0.879747861054697,1.09080608498211,STOOP_UP
2.98,-0.0926321907828739,-0.222317710520857,0.111124087378255,9.54962351984104,-0.0975292038026976,-2.26311625520193,-0.306878019328656,-0.258969032082773,-0.0420922759353497,9.52847096785961,0.957305516655038,-2.54108950887729,-0.0599025423942062,-0.27532004172274,-0.0565714752202551,10.1789807858455,0.817237222091513,1.08005573701433,STOOP_UP
2.99,-0.170469029947625,-0.205821062253747,0.13005312017053,9.68041761636733,-0.324152932694099,-2.11060679957024,-0.232065959085025,-0.221598606400048,-0.0210335808565737,9.56019813438079,0.651826237645233,-2.69218264604544,-0.054545157110148,-0.242610854193109,-0.0751789621804879,10.2267876476367,0.747222929791056,1.03239098300575,STOOP_UP
3.0,-0.248105186328213,-0.211345846356038,0.147290962634474,9.65802253991719,-0.571989816797077,-1.93652469824588,-0.129021302976752,-0.204649898953026,-0.0179539025262062,9.61664608659348,0.616404532818279,-2.62857995308035,-0.0441222702069942,-0.226676628723998,-0.0931644040485871,10.2530747877062,0.667374771193995,1.01147704815215,STOOP_UP
3.01,-0.292356606231007,-0.238547272870722,0.151213152378607,9.70698940540665,-0.525823963132177,-1.88681838520539,-0.03660175494561,-0.174318082277602,-0.0012346930012488,9.64648411658694,0.862517831481567,-2.49801505089371,-0.0187559148715706,-0.22151885457301,-0.0947338722045641,10.341112999309,0.657805949114017,0.908220098254779,STOOP_UP
3.02,-0.295432673128995,-0.240514446281548,0.137867900888758,9.64472524578368,-0.601254109031195,-1.72887302068949,0.0277834295509084,-0.137764621659194,0.0117975084930252,9.68095364968731,1.04240887296406,-2.32709318902571,0.0032918392375836,-0.220648764207434,-0.0848580142583972,10.0853646352691,0.625247218293138,0.767958563451032,STOOP_UP
3.03,-0.296787856703597,-0.242918135734622,0.110979149583039,9.59894716350872,-0.827650431564164,-1.69760133375685,0.0413030998445895,-0.124212170155737,0.0194818899529488,9.59105013320595,1.18614100146417,-2.18474134370821,0.0240890389372044,-0.212156826066364,-0.0692962520109167,9.8610615269765,0.533669207699229,0.676451985171838,STOOP_UP
3.04,-0.292376560017799,-0.216443142498808,0.095287908601786,9.57181631112767,-0.811357222915005,-1.62318443746566,0.0660820719420432,-0.12959252291746,0.0174705088029747,9.40481806596965,1.38580947044768,-2.01893058332364,0.0325864633107574,-0.205617388487017,-0.0537176765236551,9.71798590852054,0.530910051690329,0.57846357264205,STOOP_UP
3.05,-0.273126127142939,-0.171879146557875,0.0873791731501313,9.55754137326472,-0.627629917973287,-1.43317077572838,0.0733033365942553,-0.143205927445052,0.0043450566770666,9.39246047315495,1.41325074523809,-1.96656516363468,0.033739842968577,-0.198370931854742,-0.0425864503227679,9.65905456830534,0.64441436962466,0.441073289976851,STOOP_UP
3.06,-0.253359794848363,-0.119222293541339,0.0751711131172295,9.65167126857842,-0.477662482798181,-1.00824005424945,0.0924443739944147,-0.136478076985157,-0.0132788542189953,9.50440390414244,1.29884435656801,-1.89487250063329,0.0239935662677169,-0.180347464662728,-0.0307423954047118,9.69380238254778,0.74471677987445,0.377751434717723,STOOP_UP
3.07,-0.205766436785597,-0.0668016699153539,0.0631090105327511,9.82414956543398,-0.626444769133501,-0.824002210383549,0.117578487235324,-0.0952822603392145,-0.0154530727504609,9.64119730225709,1.38147337029638,-1.60936817885127,-0.0009774781855234,-0.147747807936508,-0.0125527688304913,9.85646355539788,0.73138946532414,0.345373633899999,STOOP_UP
3.08,-0.154115135691244,-0.0332345692073731,0.058299425850105,9.96998177842593,-0.6295413311805,-0.689955356631935,0.13249677528308,-0.0827711268446611,-0.0300923091220895,10.0116519833447,1.29501784847124,-1.24702873934296,-0.0401238381485814,-0.0917583958663633,0.0047035665114176,10.0253396798265,0.799069120985493,0.553112336745984,STOOP_UP
3.09,-0.127877160617091,0.0059491403808467,0.0473321536961156,10.0813365051615,-0.535634420833986,-0.669585345450486,0.116998032473442,-0.0231609231545985,-0.0148371731559246,10.1697516935495,1.61489859478467,-1.21440032134326,-0.0673787334185295,-0.0464412827220725,0.0263017592221686,10.1497170272116,0.784906496162719,0.547528447742921,STOOP_UP
3.1,-0.0606504917915091,0.0258898818946097,0.0274003541375534,10.038764405635,-0.571773055265452,-0.815266871426187,0.0907509713421446,0.0028270422437516,0.0078811485050662,10.0335259709924,1.67073436308172,-1.12725738012201,-0.0654582059345325,-0.0197127582450305,0.037259629620371,10.0958267790835,0.775766517036895,0.664290307007438,STOOP_UP
3.11,-0.0023897664544876,0.0579118849433708,0.010324062643203,9.90976034914765,-0.493044718557549,-1.07207495646915,0.0286475191092229,0.0258093008723053,0.0330193175559074,9.87969002113912,1.46385892815738,-1.11861449119134,-0.0636894495286492,-0.0272891977536668,0.0514398971431724,9.901636282846,0.750186141418281,0.682705594487117,STOOP_UP
3.12,0.0496410386730624,0.0506828790058482,-0.0020304059946094,9.76382967281584,-0.494579350407358,-1.20681611785411,-0.0484541699639477,0.0428049567055032,0.0433920302709265,9.74375943820944,1.31773334014723,-1.13268163728825,-0.0589014836396114,-0.048642587250162,0.0541338809297764,9.70588470030669,0.747962082513095,0.590493734555897,STOOP_UP
3.13,0.101266744936864,0.0655864486367248,-0.0089239342417161,9.71600023890886,-0.530036998197743,-1.43869931507575,-0.107887023177673,0.0394702619355936,0.0440471979606914,9.6868764627802,1.18907400621585,-1.42166741689315,-0.0638587805887239,-0.0858083704230174,0.0602594935910886,9.43801550522459,0.745907833450196,0.5077928493282,STOOP_UP
3.14,0.132719244702079,0.0579064233247927,-0.0095961063990267,9.66330664031503,-0.400077099783673,-1.4706651948049,-0.162427545025354,0.0246222111953942,0.0280912348879469,9.66174424215897,0.813295112939867,-1.63795159255585,-0.0699487498381201,-0.122151510925574,0.0529559278254731,9.3699006893847,0.622280669826536,0.337159936427027,STOOP_UP
3.15,0.183598588033249,0.0314481789332678,0.0005816850407558,9.60093618954872,-0.343209253317533,-1.67221165570678,-0.185841415083651,0.0521598762105185,0.0229807478390922,9.70303600928032,0.810167349175567,-1.94090142211785,-0.0731616950909296,-0.175732447892377,0.0493405293066119,9.38709197324205,0.583849236849573,0.130362271677289,STOOP_UP
3.16,0.171183999954099,-0.0050071226230819,0.0135717498475095,9.52493537639094,-0.389287777941092,-1.76871028614498,-0.153471608572607,0.0565291075752664,0.0214547536893262,9.39162414205508,0.765087768060593,-1.84152641893878,-0.064570010822113,-0.220782866812841,0.0432742527321884,9.43696536219197,0.497434520591513,0.0656018409391448,STOOP_UP
3.17,0.131742864748535,-0.0069843640945789,0.0219626408852226,9.62267031157986,-0.266787236836722,-1.93590488364431,-0.116883719938859,0.0306129463193388,0.0192282325588628,9.34190680290879,0.657468503349484,-1.75899321149266,-0.0568430487156864,-0.252877943848863,0.030946236275979,9.54895497110046,0.456980675715341,0.0218573528212964,STOOP_UP
3.18,0.0883391863594909,0.0125580325363068,0.0216470564997229,9.62035494222732,-0.251843031425312,-1.68711530205507,-0.0782378755466542,0.0147853760741071,0.0144556130357308,9.49571808110178,0.565261826587775,-1.63847676367811,-0.0543305747345511,-0.271720464452284,0.0331941642953208,9.67699354931414,0.477287557408968,0.0646005866839825,STOOP_UP
3.19,0.0337510790094314,0.0022055178028032,0.0239830386664868,9.67898250066674,-0.29250466475808,-1.46666631970068,-0.0303407011807654,0.000576921310649,0.0109227673837438,9.4532506893807,0.587823184330824,-1.56392220787483,-0.0543005345706963,-0.262935378798552,0.0209611506838457,9.809549001244,0.534102484881021,0.174277867855006,STOOP_UP
3.2,-0.0420522411536577,0.0096741516615355,0.0296996383868567,9.73873437225498,-0.261434860687818,-1.40572231325259,0.0276251666473093,0.0064630486523217,0.0039614660078871,9.58722405078058,0.752313433966855,-1.53729061213481,-0.0460979664362533,-0.259616618865641,0.0185594246774102,9.93355803077339,0.613217553129582,0.0978523518072085,STOOP_UP
3.21,-0.0683184439343002,0.0120855245124556,0.0303593187960493,9.83413764331441,-0.255211593806106,-1.38534010250521,0.0771289755372187,0.013848168864756,-0.0131248427638394,9.82028295653479,0.599325253058187,-1.6052750001641,-0.0304006954454339,-0.225552353820996,0.0224330300057498,10.0385045156371,0.646868221226354,0.056750623767333,STOOP_UP
3.22,-0.11709884464077,0.0371826131946839,0.0176119951696709,9.83455025005017,-0.361286900896514,-1.21666777957257,0.11719033594112,0.0406311089660611,-0.0038807566496502,9.95455445141235,0.684699687531096,-1.4874030981979,-0.0110454563251797,-0.191509469444919,0.0234209352168045,10.1169782049666,0.665461123101225,-0.0331001275508072,STOOP_UP
3.23,-0.132645870944509,0.0330912081707012,0.0161538134954523,9.8464407137794,-0.550255313004516,-1.18976718525553,0.135639793959011,0.0478277252362942,0.0040679609084801,9.8479806292947,0.988192260748949,-1.52048046615581,0.0029948157471673,-0.161782548169746,0.0273861933402942,10.1448087639351,0.662940476380259,-0.122994318470032,STOOP_UP
3.24,-0.145701254921902,0.0440672941283132,0.0103145909575764,9.7705277493113,-0.672985858317124,-1.2504794207876,0.12232686848997,0.0631971919308112,0.0157723417293151,9.64505025872433,1.08758836641726,-1.69182878211316,0.0153453972341981,-0.138615706529662,0.0251305589908059,10.1322541482616,0.63619735355598,-0.159642321974186,STOOP_UP
3.25,-0.113607925730496,0.0334633106478566,0.0043533109367594,9.66063405337828,-0.722880666647779,-1.2978884819767,0.118151476227404,0.0612234937502954,0.0078563043753756,9.39157537222815,1.07867962578465,-1.78523640471821,0.030612725231485,-0.119468320884928,0.0269004613188244,10.0462518366813,0.643297995683834,-0.189147260511145,STAND
3.26,-0.0670526584562187,0.0350014970621182,-0.0046291860198051,9.6232759119536,-0.937064810468713,-1.38587363403241,0.0996838796632599,0.0566502181818967,-0.0060861399221246,9.3713844788711,1.03580456457723,-2.0813189478565,0.0428284213081075,-0.109337294412322,0.0258373974444205,9.98319804834894,0.595702370744819,-0.224829881282172,STAND
3.27,-0.0249502313617488,0.0538367768564211,-0.0043155709763324,9.62415177981818,-0.830116392787844,-1.54795793660087,0.0924569287618988,0.0279015714520425,-0.0176886230348416,9.33906903899337,1.0281251897576,-2.07112760821693,0.0519945581747494,-0.0955203056508873,0.0339167534979228,9.85937041984735,0.605712068196772,-0.232749921293372,STAND
3.28,0.0396279283869532,0.0419068145088485,-0.005477627547074,9.64131735406588,-0.820952568256965,-1.50531423047509,0.089442212411522,0.0126068638181791,-0.0226666043559394,9.43180246695751,1.01634159078851,-1.98772046399626,0.0675577609344606,-0.0872454045231081,0.02683156584908,9.82815570012972,0.687746783664927,-0.320086461806235,STAND
3.29,0.0850777570057454,0.0188731764615274,-0.008254159169292,9.62103125246379,-0.809805496770119,-1.52695227301553,0.0707835316760755,0.0033402502030559,-0.0181781612322444,9.51653306700402,0.991519090840597,-2.03586965497731,0.0755266740137389,-0.0675758828728013,0.0226216374701492,9.82149311400304,0.757815746412631,-0.32259404863807,STAND
3.3,0.0919763758679459,0.0026348984393991,-0.0090676875573363,9.56013842431783,-0.834562690652128,-1.46179256456858,0.0537774591012904,0.0013355810508041,-0.008819713791839,9.64326144400456,1.04660665731417,-1.81663214310687,0.0711887841035333,-0.049822637163333,0.0187037508580841,9.89148095804896,0.803377710357551,-0.22844333828485,STAND
3.31,0.120341480724684,-0.0248292028919535,-0.0010864387529278,9.66158833739173,-0.663307766536416,-1.42058710766842,0.0474967274091011,0.0009586078915289,0.0021996662745874,9.68949384784026,1.0420248177655,-1.60933775395425,0.0597836266871617,-0.0272324579266668,0.0200139039478102,9.96308130815915,0.815874982296906,-0.123435563386079,STAND
3.32,0.120021269939199,-0.0157756987859173,0.0026934612459858,9.7152348035711,-0.496871625258585,-1.39047212654596,0.0336800041881423,0.0202346371524208,0.0095238508804159,9.7249788244675,1.04643889563577,-1.52464989021949,0.0369458824783561,-0.0085035095413246,0.0219245100532589,9.98142726227349,0.87422033062732,-0.0365584990030373,STAND
3.33,0.125355863954425,-0.0086764615721669,0.0029999883865488,9.7898083425964,-0.341906365252551,-1.33486083446152,0.0107948079426415,0.0258633000976741,0.0104662833891203,9.60574626996515,1.18216110641855,-1.6943427140986,0.0182145452026812,0.0013923639092176,0.01696805053732,9.94893171781682,0.83624177042111,-0.0327634851667457,STAND
3.34,0.117947854305696,0.0058427088340327,-0.0058363855214256,9.78227553270051,-0.360524453660326,-1.17005874889365,0.0034229252599321,0.0309379826865824,0.0076308715437296,9.57184641630693,1.03601712104465,-1.73837518124012,0.0036520995127324,0.0047143749598096,0.0115308493061993,9.95266454256392,0.828695296046795,-0.0559064923102875,STAND
3.35,0.070562196358163,0.0240109570834916,-0.0024681770610755,9.81540859106249,-0.262347926848996,-1.12756568315683,-0.0142934464371657,0.0166736448884736,0.0035446899178536,9.40398317569494,1.0210299457604,-2.02604814042532,-0.0019773351162049,-0.000916268727401,-0.000154295605451,9.90515011161905,0.740785894432955,-0.0401737378805175,STAND
3.36,0.040346542729908,0.0389967476148444,-0.0109540286368168,9.73862332085078,-0.19068503155686,-1.26543215996938,0.0047343816935946,0.0082426352658803,-0.0005330439985366,9.42632020877129,0.99812914147254,-2.11047352572321,-0.0044481281168957,-0.0057336274500861,-0.0082290804940574,9.88878282402624,0.723191481480986,-0.0382826187914827,STAND
3.37,0.0003451649040783,0.0366462626226491,-0.0129690385414802,9.66445696006873,-0.290091175140217,-1.22112292172026,0.0405498968562115,-0.0002271694364219,-0.0015198671390793,9.4854401725405,0.901140018235344,-1.9300995679938,0.0038749513876952,-0.0136516192546353,-0.0064070481908812,9.81904403592381,0.751804384467652,-0.0573240350986756,STAND
3.38,-0.0414293054168096,0.0257667660668933,-0.0018134714438788,9.59803482562966,-0.178281781070629,-1.18455991650568,0.0433142014674492,0.002852592853867,-0.0002420389559989,9.49761922917501,0.907979685555682,-1.95012406182674,0.0094552724193842,-0.0155119435280502,-0.003879244857423,9.76709541563977,0.764890814810594,-0.0701231649977015,STAND
3.39,-0.0509368602871484,0.0090583743012047,0.002604247475824,9.66851690296382,-0.113842503657445,-1.30711574879339,0.0552092368260964,-0.0127240437079237,-0.0010619451616923,9.58018837921626,0.965212071899703,-1.84785155644937,0.0135530136513424,-0.0143870283148059,0.0064144819139138,9.82812178488043,0.78244349687155,-0.0158547923269003,STAND
3.4,-0.0570158100785721,0.0111237896670885,0.0094530799990517,9.71165545846668,-0.226629067400729,-1.34486217536488,0.0684783505481326,-0.0048772608182911,0.0023275586089861,9.71996324296758,1.00498723750932,-1.74765285763504,-0.0097206246051431,-0.0057897481130081,0.0208166585119407,9.92504940438227,0.752834538806128,-0.0710751597326438,STAND
3.41,-0.0767042263132135,0.0042668129440681,0.0124478804142492,9.75451165960761,-0.420431292403612,-1.34795619949957,0.0811831541654697,0.0173055382442467,0.0062849000816374,9.67302958954415,1.1506860739239,-1.66039811203399,-0.0428491849474661,0.006222113107208,0.032011718335787,9.93100528220473,0.77129672109631,-0.126528390079362,STAND
3.42,-0.093204263349381,-0.0085778710964137,0.0173559508643227,9.68021907559786,-0.416138964639304,-1.47474077049784,0.071860413753355,0.0300172633475035,0.0153643348070917,9.65370943631104,1.20967006093256,-1.52743560040646,-0.0850897575222334,0.0251415860224295,0.0447036162356716,9.95486727698904,0.773347929913003,-0.173390515081969,STAND
3.43,-0.076801687746928,-0.0136188248548458,0.0116847722155866,9.58449388433093,-0.505389060187508,-1.46112419284577,0.0140500085312046,0.0199240065314542,0.0280190112605624,9.6082764132074,1.29306270150359,-1.49111630945052,-0.101124995465817,0.021512015523087,0.0299006270284662,9.87266530675388,0.83735905538543,-0.506798676627762,STAND
3.44,-0.0565737638272723,-0.0110185072740704,0.0040884018481492,9.54501995576706,-0.711554554566454,-1.42852318964753,-0.0469936123786041,0.0092946264378494,0.0236318580688981,9.58587174897372,1.29240922493223,-1.59340082495988,-0.0715559525067783,0.0249881778287341,0.0282839533871337,9.81641594344701,0.872007744056131,-0.624170276442363,STAND
3.45,-0.0362296653481243,0.003961983060561,-0.0032283516483681,9.55219331126704,-0.79864275399572,-1.42737786613145,-0.0685445781321292,-0.0168665383551567,0.0229768842356215,9.45084682158945,1.24356374277279,-1.84498285204831,-0.0509590697011036,0.0247037597194768,0.0209704268546332,9.69079401654944,0.79207782688592,-0.288961206582849,STAND
3.46,0.0182381431267675,0.0023615579474287,0.0080071719971953,9.59566386656003,-0.693477701417943,-1.439185126544,-0.100446140954682,-0.0160081761266656,0.0221969888643974,9.50102437632555,1.07233566031099,-1.93976628655788,-0.0557547432059708,0.0091507885867293,0.0120076750123591,9.71754907765309,0.650712112013792,-0.144606967725708,STAND
3.47,0.049838690333932,0.004947346264904,0.0070961428742915,9.59566055713905,-0.638306322377036,-1.34196684263129,-0.11138878849098,-0.0337907638739093,0.0114187637170193,9.48543385253173,0.870788164332837,-1.78630572954651,-0.0561743401306073,0.0022904319632977,0.0076822750309874,9.70900537334148,0.525755364223159,-0.138494647805643,STAND
3.48,0.0664539529909512,-0.0024340512304245,0.0132039352076978,9.70000340227043,-0.478697043971087,-1.18894558655205,-0.0992728564795281,-0.0564130166553725,0.0046947104524614,9.5268791978182,0.691599543242502,-1.68193676419622,-0.0461140815829964,0.0094302759167754,0.0016358890720914,9.78812311907092,0.51255587546646,-0.198599750715498,STAND
3.49,0.0591343950976484,-0.0026270494044899,0.0158808746376875,9.85358954612106,-0.381191975619931,-1.24722445679269,-0.0693373239142868,-0.0379672826524076,0.0048614486577171,9.59011290129708,0.707261603213513,-1.79161170538818,-0.0348351307750733,0.0244571838767056,-0.0033759552072052,9.87275716556743,0.535955257301347,-0.18960818821968,STAND
3.5,0.056236121553428,0.0039936293129271,0.0119126375884723,9.86603875451573,-0.192415156990523,-1.26614891985092,-0.0015035112154052,-0.02443561626478,0.0019839159191918,9.68529497062515,0.672578023972722,-1.7188077153918,-0.0255433481146858,0.0437955367664055,-0.0057470356293274,9.91740018538235,0.535722474674817,-0.127987400930619,STAND
3.51,0.0154640685052636,0.0158540979274053,0.0038067137627143,9.83624837526064,-0.165864716109313,-1.13316228185036,0.0292765672163973,0.0098575048673142,0.0033843340205502,9.72925674178333,0.669158866969613,-1.60321718642527,-0.0146532264685092,0.0651903386851596,-0.0147099259941877,9.83462020886347,0.555511816721364,-0.0382209520907474,STAND
