time,left_angular_velocity_x,left_angular_velocity_y,left_angular_velocity_z,left_linear_acceleration_x,left_linear_acceleration_y,left_linear_acceleration_z,right_angular_velocity_x,right_angular_velocity_y,right_angular_velocity_z,right_linear_acceleration_x,right_linear_acceleration_y,right_linear_acceleration_z,pelvis_angular_velocity_x,pelvis_angular_velocity_y,pelvis_angular_velocity_z,pelvis_linear_acceleration_x,pelvis_linear_acceleration_y,pelvis_linear_acceleration_z,label
0.01,-0.151177527627132,0.0841231208146774,-0.0372787497515272,9.59679823474018,-0.293882346371974,-2.2308378382446,0.237548445036842,0.15885638521475,-0.0784060410405276,9.52893984197284,0.570038865977868,-2.38903496613938,-0.0287020666801844,0.0650811892582505,-0.0143523060025234,9.9064110088627,0.97376026230034,-0.437172839964393,TURN_R
0.02,-0.123510034923902,0.0580781531831232,-0.040567009232469,9.51756991069729,-0.291599470324136,-2.29756822861192,0.230574556220848,0.184498615568648,-0.0736042794222158,9.672730012523,0.809293843573675,-2.33658119297962,-0.0578408060059012,0.0826550570398411,-0.0180033295868265,9.90871969632456,1.0655185968372,-0.372635498934311,TURN_R
0.03,-0.0848931763586928,0.0213101923304324,-0.0374324100240597,9.54419773310064,-0.204357028048099,-2.32734151139027,0.195636773594988,0.189472876722066,-0.0645673058766559,9.46903480009422,1.06186182081639,-2.39013638242164,-0.0863261637846431,0.089561961893491,-0.0226510501970565,9.82298399838514,1.0988004126004,-0.367297250857317,TURN_R
0.04,-0.0779600495695132,-0.0058117602103636,-0.0248321801380282,9.58449476313753,-0.0075302357452296,-2.20351486251049,0.127759273838355,0.175328667203584,-0.0628721631247077,9.43944204953453,1.04385064123261,-2.4412610460034,-0.122010249373273,0.0905634018379503,-0.023114905757604,9.78837856013272,1.13022389519639,-0.432912190125939,TURN_R
0.05,-0.0983710728143306,-0.0239737249876273,-0.0208331831159608,9.67678190209717,0.266881143059481,-2.04663167237474,0.0548214194334278,0.149580232172894,-0.0432629913184241,9.27790743857272,0.979331613039015,-2.46743845072129,-0.172301234332513,0.0848024408217264,-0.0184551248809649,9.68505487453536,1.10630159156239,-0.346023259326567,TURN_R
0.06,-0.123493284406048,-0.0496031159474774,-0.0089840161717873,9.67676518875992,0.477293178364649,-1.88373363112804,-0.0265179875413656,0.125543218532301,-0.0496699964396857,9.6644824257823,1.03092362609643,-2.41810353689612,-0.231162529840177,0.0665712370909655,-0.0013431633804013,9.6484011876026,1.01230940991057,-0.435274180363312,TURN_R
0.07,-0.136802685220421,-0.075702387236889,-0.0009442745724684,9.65184461416822,0.635511686363929,-1.74146944452762,-0.101673671768477,0.138995726321008,-0.0450579405664335,9.7219702722781,0.809753713634718,-2.30919260711697,-0.275279589590125,0.0360702934180281,0.016999223427823,9.68303123821449,1.05185158233922,-0.562465142862461,TURN_R
0.08,-0.214711511268901,-0.0791135122867536,0.005972644142833,9.60839484897076,0.80870817881609,-1.77592860303737,-0.152810321969002,0.141561638407141,-0.0315480115644352,9.71677907531698,0.758820153074659,-2.13948170304594,-0.295497768553596,0.0032180583096945,0.0337430615384357,9.66685225795682,1.15621496831096,-0.730133843350398,TURN_R
0.09,-0.308162003511162,-0.0609741683599962,0.0162694501436736,9.46401827757372,0.96411812796088,-1.53166927166735,-0.212088093657665,0.152465174865431,-0.0189231522514094,9.85079473633244,0.908526821389033,-2.04397007041891,-0.297226163982905,-0.0275280240593944,0.0481057233712328,9.70446974324477,1.31361117143345,-0.737542579637925,TURN_R
0.1,-0.377155930919767,-0.0505222351878259,0.0228064021969031,9.43046229772431,0.948139498163308,-1.62677729560362,-0.267444591378377,0.157948145285677,-0.0058915964475317,9.79226414229581,0.829116234295704,-1.98890348087239,-0.307508318617256,-0.039673852008476,0.0611490417323768,9.7592185901003,1.45754637602434,-0.758659692025586,TURN_R
0.11,-0.420743339806718,-0.0325590711986615,0.0303737020641789,9.45411409142075,0.829280563058289,-1.82779798292323,-0.29989693626545,0.210436650821343,0.0207464144518438,9.75989130703057,0.677979017375738,-2.00280573153381,-0.330944951378983,-0.0172706593443963,0.0698338909651795,9.88295725319336,1.59340478529381,-0.820520157043459,TURN_R
0.12,-0.490450051426947,-0.0239242042348911,0.0336631853392082,9.47576391513452,0.70623793527036,-1.7641437644272,-0.303842923528626,0.253824569075704,0.043920288749343,9.60916736681862,0.531174589444992,-2.03699777294495,-0.368424053174401,0.0142317470553803,0.0796746252865724,9.90234730040418,1.6239472157806,-0.777440673661772,TURN_R
0.13,-0.522617874863076,-0.0320037111424296,0.0226958909321334,9.41562963214477,0.307887335788456,-1.97649945762435,-0.333083198913524,0.28418826015889,0.0508234823454787,9.47081350749669,0.413869588638447,-1.99499036070226,-0.401755454153919,0.0305873810721893,0.0786812889649908,9.85235027991119,1.63187183159333,-0.755969732886147,TURN_R
0.14,-0.50748897431788,-0.0260526006014493,0.0283486011789669,9.36735734278646,-0.0115984199196775,-2.19252750750988,-0.344858242539877,0.276665561029966,0.0407090806585182,9.57887811718294,0.231694207929239,-2.14855673049481,-0.447694897580622,0.052937689139195,0.0845385851812506,9.78574759347393,1.63934828080621,-0.660604758489459,TURN_R
0.15,-0.520628618592263,-0.0334320550908993,0.0290417993725044,9.32653981964151,-0.256634757042114,-2.01367917617218,-0.355217556009303,0.277520307191912,0.0450284136283426,9.67328952217902,0.251531361269838,-2.22881988575703,-0.500469863283365,0.069743282884592,0.0766748297525178,9.71757320136456,1.58197051359917,-0.597024058778238,TURN_R
0.16,-0.500465222552548,-0.0364577125481305,0.0331901226843029,9.35095772491304,-0.402815649200556,-1.96166915689482,-0.365316386796041,0.288775260552755,0.0521387276743073,9.82717747968563,0.468598213713642,-2.17838901290743,-0.558079162980144,0.0725352526703835,0.0763415906986027,9.66713129908762,1.55415282662613,-0.535914959420757,TURN_R
0.17,-0.472843642209823,-0.0192738961183219,0.0329702362298404,9.298117715525,-0.440827190752068,-2.05463878489578,-0.3785484599537,0.321697785250834,0.058592027007785,9.96212243971073,0.797446658727221,-2.18825121987565,-0.616795755996525,0.0644031129760312,0.0769419674862904,9.5830565438911,1.58153336137056,-0.523124154691953,TURN_R
0.18,-0.404141480537088,-0.0304013656745886,0.0337376559717608,9.28809345186885,-0.280063811106231,-1.93527983583428,-0.413812812689314,0.348099741050637,0.0721405628583481,9.9494593155872,1.10736020494667,-2.17974559895674,-0.680578069730903,0.0507021381850349,0.0743136268300437,9.55147117351643,1.65169894344471,-0.57176828003807,TURN_R
0.19,-0.36272887336522,-0.0353445435701946,0.031110344456645,9.35761600410921,-0.0317568382084396,-1.83895721633712,-0.467759641846913,0.366251627340697,0.0931095337577108,9.83229256140502,1.30062223976253,-2.21888457613046,-0.743789424394883,0.0344696300800924,0.0724383353104683,9.58962772865736,1.74420236946954,-0.594077161109097,TURN_R
0.2,-0.348698421377371,-0.0540873268613312,0.0291497264423491,9.46238289558262,0.484068040518779,-1.99438212963749,-0.526900420107966,0.371001807723339,0.117362136669841,9.56556132334341,1.49158074577968,-2.18709591072719,-0.809564972282451,0.0284917946665012,0.0741736382836801,9.71167723495437,1.74214020658464,-0.649131808784634,TURN_R
0.21,-0.367368738689031,-0.0548041492536304,0.0255457827268555,9.49428330109086,1.01500883417326,-1.98375986868288,-0.609235201376272,0.355064751121996,0.134024678503579,9.43413348422941,1.28186709448085,-2.246279851435,-0.86759726869147,0.0337286550395803,0.083634707444236,9.83108202561042,1.62514851496109,-0.650952360732036,TURN_R
0.22,-0.442048206721995,-0.0452173822271534,0.0284843472651025,9.62108106969119,1.30017326136697,-2.05952024560841,-0.714109000189062,0.35522042202681,0.151060910977651,9.52413608562565,1.09680724904368,-2.3679439675114,-0.926573042064954,0.0417140392980862,0.0839187806830795,9.84651372466159,1.47946576791086,-0.537263772431879,TURN_R
0.23,-0.516455893674841,-0.0148055646033886,0.0251326721733054,9.55510929223813,1.40175884278876,-2.52248735300029,-0.800871908428344,0.376517958583308,0.160956040829267,9.5269103981287,1.20308380566302,-2.51696487605327,-0.978240688887261,0.0557703248837592,0.0915699714444868,9.93236356532504,1.41644720274287,-0.628001822001113,TURN_R
0.24,-0.489218000567838,-0.0235448724418779,0.0306661749206564,9.48719634462804,1.15918892437173,-2.41293399596771,-0.867117977501959,0.374467036923005,0.154750264479476,9.51196725254494,1.19074770247947,-2.70439347910085,-1.01734668413676,0.0594553451993021,0.0939477055058682,9.98692049438843,1.45857074187819,-0.667382932687328,TURN_R
0.25,-0.497363246095372,-0.0385795012231665,0.0309898664023128,9.5470131146749,0.215271879014223,-2.07311960268091,-0.905467478361871,0.360938062605103,0.140266143401167,9.59121268327084,1.08047964250686,-2.79066596247302,-1.06775335529748,0.065971822666174,0.100236821067323,10.0603642521885,1.55008328815768,-0.72100297179797,TURN_R
0.26,-0.519498137973719,-0.0404795518290758,0.0406248005559757,9.4571630676246,-0.583656482914374,-1.98243630036917,-0.915566624851512,0.380947434196779,0.134000665055278,9.8951644200127,0.9021663715812,-2.68553869069184,-1.13008911380914,0.069426191218685,0.111492453683314,10.1502152965479,1.59391313944828,-0.713180274851251,TURN_R
0.27,-0.462206066967985,0.0000713317668054,0.040506478716933,9.47723923208023,-0.602608356500176,-2.50408575531273,-0.921917810237034,0.422129305334641,0.142168289340226,10.0269247755276,1.2837808032724,-2.764787748024,-1.2086438284381,0.0707648213043253,0.132911337388746,10.1884628719223,1.62875438337148,-0.674315978254526,TURN_R
0.28,-0.332461425737592,0.011197521628583,0.0435580481163316,9.63858291225021,-0.0803289997236184,-2.07605859026859,-0.93640227692337,0.44392671720602,0.151161478411675,9.88300372741366,1.94060618298301,-3.07142124974024,-1.28402588773446,0.0772757409447537,0.162581414678455,10.1732136793416,1.61042568635243,-0.871897914410656,TURN_R
0.29,-0.308630758196224,0.0420609293512248,0.0234187668099035,9.44138727829191,0.165201263108772,-2.03860497808764,-0.968511916594619,0.428128235908554,0.160078449216218,9.77619194302197,2.37049674863059,-3.16373381848005,-1.34524376525065,0.114511001172166,0.181736460453586,10.0723572997235,1.58843607774484,-0.995961120106064,TURN_R
0.3,-0.39381309299295,0.0641210941074367,0.000173723522996,9.54309320723813,0.249561944203699,-2.35571910851007,-1.08395557439159,0.450195418039396,0.185287329940825,9.56561836733742,2.69291445700874,-3.40530764807234,-1.42003007594803,0.151948854563919,0.19345354159969,10.0612398432259,1.63002578384828,-0.76241480916379,TURN_R
0.31,-0.415769858459553,0.061588296011369,0.0124635775508028,9.51374782732645,1.04537740809365,-2.40619893036511,-1.23521876474575,0.403267176776426,0.194338044650775,9.26499993178979,2.82260248600452,-3.17263452855403,-1.48875245184425,0.165170700676452,0.199237734760959,10.0504232767076,1.67467945779896,-0.819835154734714,TURN_R
0.32,-0.461180265856607,0.0724760868994842,0.0238994071626537,9.72737769974419,1.23263514706445,-2.50785500570452,-1.41279430760418,0.33405674283433,0.210791414812464,9.26556628893741,2.656658400417,-3.21229144985469,-1.55219241221241,0.202213709417438,0.212056306087851,10.1223287969882,1.60966048580517,-0.905420410543163,TURN_R
0.33,-0.5547859319103,0.0736181503383766,0.0418039629763333,9.85016945719525,0.993951298277679,-2.31627604922573,-1.54475011847336,0.261399274747904,0.217908482656814,9.37414114674886,2.43398030830341,-3.26148923373352,-1.61803687921079,0.265949137176669,0.22617126143702,10.2395457852204,1.37482285412313,-0.982942704800705,TURN_R
0.34,-0.648075846890476,0.0386960707618547,0.0662529012205868,9.9064860928235,0.902347505715671,-2.50335803255003,-1.6203479308543,0.181694499887111,0.222175106556128,9.45405183173767,1.88844328643903,-3.33947663003704,-1.66963719434931,0.350537914243282,0.242715905642108,10.4572432663037,1.07079993432802,-0.978779847746982,TURN_R
0.35,-0.72826909500053,0.0144510988076892,0.0840880747447891,9.79638485785245,0.858315725146855,-2.32479122194192,-1.61663762327413,0.130534180051074,0.220777302219011,9.63474863667946,1.44995926454653,-3.36409045947066,-1.72718960885379,0.417872557902301,0.263449072183731,10.5672252592922,0.728476549293554,-0.752996849749819,TURN_R
0.36,-0.841931236985433,-0.0178692047594858,0.109315960088619,9.60475239742398,1.39443073671459,-2.30526871491868,-1.54428472248859,0.11304081139224,0.215980118569965,9.71894910870221,1.17825763736042,-3.00945973623574,-1.8247432391489,0.436145607027377,0.269109674484129,10.47694543535,0.571332230870448,-0.556945212675333,TURN_R
0.37,-0.93824125768643,-0.0208164036295217,0.144546617504972,9.65072176023196,1.78321953732377,-2.37471152402071,-1.45644782294702,0.0875452603053354,0.212454159421271,9.80495216505874,1.0056505286436,-2.5659300290796,-1.90413000857209,0.413809074070179,0.270025477381707,10.3296869900702,0.565301210710085,-0.759708802437761,TURN_R
0.38,-1.095933682997,-0.0043112404006633,0.179328858195004,9.90264944941232,1.95598951899774,-2.37316349384736,-1.37552789977119,0.0928423484424866,0.216287373853555,9.8136613481661,0.947461040746557,-2.19578598518856,-1.95684903309616,0.38455641258822,0.252954111129622,9.97109283900452,0.519057700198745,-0.822406640728885,TURN_R
0.39,-1.28670510713602,0.054164243234969,0.185628054056447,9.50551406633416,1.81863970294214,-2.37582369567634,-1.30879775275995,0.110153091293261,0.214808030115324,9.75389785223504,1.0637510528718,-1.94466580230898,-1.99073538392389,0.37191901427206,0.230292777875718,9.73192588794377,0.458697122638619,-0.86269883810652,TURN_R
0.4,-1.44683767452399,0.100412722186369,0.188693218264966,9.57294306297673,1.69419116524168,-2.18504763341704,-1.23861933378718,0.12458466145588,0.201558547095789,9.73972224599564,0.99361856168633,-1.79727390768389,-1.99073538392389,0.37191901427206,0.230292777875718,9.73192588794377,0.458697122638619,-0.86269883810652,TURN_R
0.41,-1.56898550559764,0.139395474523476,0.179812120565249,9.48388216305569,0.866477466043228,-1.77493546852405,-1.15386664333885,0.159441760319052,0.171097919690086,9.67785643542123,1.06458727355867,-1.72974090440128,-2.03775926841756,0.421705771376396,0.162617306272546,9.52299046749781,0.0882982735237369,-0.722193534213819,TURN_R
0.42,-1.60172987490646,0.136408279123608,0.158461074984981,9.35802007177727,-0.073206854855979,-1.40220371514455,-1.13184607096738,0.203453778197057,0.15004093565122,9.57916720300346,1.37090867231696,-1.59713571761946,-2.07873631493346,0.446292412272492,0.100841775455006,9.25915013726534,-0.504579575637859,-0.513734372317271,TURN_R
0.43,-1.52341514897157,0.064596998064512,0.156236508621988,9.38755534057533,-0.358029414433249,-1.59622660471139,-1.2051916259572,0.226262377666101,0.122532087804941,9.32897898920995,1.73286067952305,-1.24858814431717,-2.07160273592473,0.42204960334796,0.065598728392314,9.13240226938709,-0.826133492949425,-0.399489414592993,TURN_R
0.44,-1.43833101416141,-0.0130007108337973,0.173009511927408,9.45400849627852,-0.482224893104528,-1.41938069648229,-1.35962097236863,0.214224836870713,0.0852707456437481,9.32411624473753,2.33159748881889,-1.05829421428356,-2.02848374483736,0.385526086878095,0.0400155018273231,9.08794117278646,-0.958339938077928,-0.332095012249583,TURN_R
0.45,-1.35942971960358,-0.0798715938379176,0.177936196141645,9.4097709477685,-0.325087068558379,-1.36476326184978,-1.54539093558668,0.202279099122221,0.0634591295210648,9.38815211440472,3.03540545310058,-0.941319346188618,-1.97224032566186,0.337337781363428,0.0257704890286251,9.19256153266133,-0.906325343015959,-0.223862756493011,TURN_R
0.46,-1.25015722286117,-0.138029165225232,0.182693767545463,9.63239392727476,0.04552389914265,-1.37858010011037,-1.75181768504819,0.195926319322871,0.0432489766738917,9.36969954304295,3.56528422597523,-1.02034747150672,-1.90564810957906,0.288367249250629,0.0315817075999209,9.39218362451729,-0.806992756595716,-0.257657249790404,TURN_R
0.47,-1.13987809595598,-0.175480318169946,0.195082180203066,9.69324996193547,0.388812610999637,-1.57866506885509,-1.97037478152949,0.159277779602818,0.046156066706229,9.37427994008974,3.80816652149608,-1.04675705154223,-1.82104600410362,0.220454596053516,0.051977548403647,9.53015580471135,-0.704089812863965,-0.473485267258411,TURN_R
0.48,-1.06569038838582,-0.174798701697417,0.198998158435347,9.72772975770564,0.744182778081567,-1.28451903457678,-2.2364420243158,0.131050799501991,0.0587806440780416,9.32552639708043,3.61413715609547,-1.1328460590133,-1.77036281810217,0.157387664679231,0.0797082642603589,9.55805067733268,-0.59020467260098,-0.515645796711951,TURN_R
0.49,-1.00522282875024,-0.174767278886837,0.206551656264195,9.69068269928278,1.08655706085043,-1.37383474148664,-2.53074664238315,0.110398863589328,0.0810441543457671,9.16531585557208,3.01393418634999,-1.19886728197684,-1.7308588278216,0.109685583626664,0.107077085695555,9.53532704234488,-0.48640560089851,-0.611078507677047,TURN_R
0.5,-0.976458934931669,-0.173976649749195,0.208344487116623,9.48197246165403,0.947110223505712,-1.31378668020558,-2.80006883000427,0.0851148448556099,0.102924811937125,9.18737012940551,2.1410595220151,-1.25372642359868,-1.69343505356088,0.072442485184203,0.130123777524482,9.439013976906,-0.41608769009076,-0.665012085362577,TURN_R
0.51,-0.964745477433305,-0.191585498349526,0.230032014185826,9.45005128077794,0.941598037970401,-1.33569325195382,-3.00786384078643,0.0790249971082261,0.130409400460658,9.46814691149932,1.17406203966552,-1.05856773072824,-1.66983944892524,0.0483202217705857,0.141785604824349,9.35664836239266,-0.359720923469574,-0.663071206664813,TURN_R
0.52,-0.925634437364779,-0.200208466101846,0.241966011865892,9.65786895118445,0.873160398030984,-1.40235196294135,-3.1536119342615,0.0849669310490798,0.169017495901873,9.56621821540847,0.414358791651888,-0.879068494160078,-1.67116481486253,0.0236256600639184,0.149072230272079,9.30728440662166,-0.337553377636704,-0.689365272260076,TURN_R
0.53,-0.858622961716248,-0.207270480670061,0.250639425295894,9.59194543143652,0.810340680325197,-1.49303243673103,-3.22909905453087,0.112530385310495,0.195788387827686,9.84335644061572,-0.550517201450859,-0.93136238364394,-1.66756279699186,0.0065486460669001,0.139572465691391,9.39276577598156,-0.428395224587113,-0.868576085250633,TURN_R
0.54,-0.867969106076447,-0.218075454130082,0.266054621294559,9.43022080263397,0.74578912695045,-1.71658455554994,-3.26833132497358,0.202813069575571,0.207233409830259,10.1881135633873,-1.40777277884358,-1.21277104126607,-1.67599978966975,0.0036461131280706,0.134889953364126,9.43761201503214,-0.505909100350528,-0.878711682671926,TURN_R
0.55,-0.894522968668837,-0.227234398638456,0.29832110506584,9.47960456386312,0.737948704729379,-1.89590292462221,-3.28192378860908,0.212885299346127,0.209508719969156,9.8189550831277,-1.75916510353161,-1.54986905915379,-1.69658997744094,0.0121239410500581,0.111024552015174,9.52754129379152,-0.582721024192115,-0.69815023690074,TURN_R
0.56,-0.93588291985018,-0.240006178079984,0.326256894689999,9.53801211079021,0.799056152486918,-1.99170668942285,-3.1902222680627,-0.0559004602771709,0.190288516430481,8.94960744104747,-1.52910420501048,-2.39322727798627,-1.72954322527107,0.0199212464893119,0.0793821862254184,9.51511126910583,-0.658455745703493,-0.557346117646489,TURN_R
0.57,-0.968265390031797,-0.251332067838501,0.351432175281577,9.51140392723683,0.762479939051443,-2.18209848253241,-2.85980034411098,-0.289862371720298,0.164180161468117,8.38360079468566,-0.529353377059251,-2.98596668745161,-1.75681516907941,0.0094339849359327,0.0381574800585517,9.52109881719072,-0.778533805440141,-0.570712003429966,TURN_R
0.58,-1.01895092517221,-0.262442857087683,0.385780198578925,9.67880759828081,1.03321355478181,-2.34352435565515,-2.4457911025585,-0.328009561038797,0.144117081114669,8.09329168465207,0.168433311863647,-3.28938946424899,-1.77097126265053,0.0002900570622706,-0.0107579406308036,9.50899265399974,-0.921377215382092,-0.63926342007978,TURN_R
0.59,-1.0185380852872,-0.291417954954744,0.42342585514576,9.67505987901516,1.33652097683971,-2.43627991288178,-2.13116242319021,-0.247107545462115,0.112928381491648,7.99736667006041,0.25385279996989,-3.53667282621263,-1.75616647172565,-0.006731405702277,-0.0562642221590484,9.5284285605889,-0.979187776122407,-0.944151634159405,TURN_R
0.6,-1.0558033192829,-0.27356228360074,0.437548055353553,9.63880479288287,1.18051258047631,-2.50546259164341,-1.92117025122466,-0.171342509225601,0.0565943863182571,7.89305875605217,-0.085271733866604,-3.55739962208776,-1.71040163892266,-0.0009909958530703,-0.102835498253831,9.58898597315201,-1.058393331063,-0.953876182859658,TURN_R
0.61,-1.09675242999696,-0.243477524130509,0.450140568257752,9.72219413485167,1.33308790870215,-2.85555760538344,-1.79047824685107,-0.11117145100309,0.0211869268863332,8.1309207260757,-0.379050501069788,-3.25276629802541,-1.69627596734989,0.0178162995221901,-0.133392459904315,9.68376279891502,-1.10701115525173,-0.827329279159236,TURN_R
0.62,-1.12287719674899,-0.187216738259055,0.473895674536374,9.60925974899403,1.53685496494492,-3.20151309120944,-1.78940367354182,-0.100986054785609,0.0272860030719154,8.26600892636901,-0.578215460027436,-2.94085244767718,-1.6898289199879,0.0210709148128264,-0.158498114256384,9.79742019049126,-1.1601668886576,-0.753047195456765,TURN_R
0.63,-1.21218750467432,-0.138043560639339,0.478577755795159,9.32433020194922,1.14507415745042,-2.91855991215856,-1.84647987004968,-0.178775342220215,0.0804201016368952,8.41852252804491,-0.575522643066816,-2.96799412375705,-1.70853256010985,0.0394631674532886,-0.166417717164373,9.88866175381135,-1.23568834188704,-0.524936715409037,TURN_R
0.64,-1.35237412811834,-0.114460278043041,0.493056940040775,9.23224182528868,1.17674495413151,-2.84854829924443,-1.92300959353032,-0.238232311688505,0.153573485764187,8.59929849885355,-0.506408630842653,-3.03099600771802,-1.73702263494422,0.0637629257315649,-0.166703263887377,9.92946999039279,-1.29018116847477,-0.247180178466048,TURN_R
0.65,-1.38429161923246,-0.106167301413754,0.512253839530458,9.33353663529771,1.20099930055367,-2.8391270241873,-2.00165747511409,-0.296553621464609,0.227092190121997,8.74561847928612,-0.491500717623565,-2.98203279672146,-1.77113450754412,0.0854817832113242,-0.162316415226143,9.93539406481151,-1.37414366032092,-0.0403795629657795,TURN_R
0.66,-1.39169328179116,-0.100922396336568,0.528473740003953,9.46884243404783,0.860381964991194,-2.76097814949315,-2.03257756740029,-0.392431218333642,0.291849849851009,8.93905834433027,-0.541746096175181,-2.78435423909316,-1.77176577139876,0.0964342438173944,-0.157643538890248,9.91999449896083,-1.35672798829319,-0.0386569302466899,TURN_R
0.67,-1.39502130507064,-0.0940352434148545,0.537253222167493,9.42619937367588,0.816766027593541,-2.75768823250147,-2.03634033928475,-0.463391868913681,0.352705180553951,9.09897344472246,-0.617858773326022,-2.84172696977647,-1.74491832688694,0.108115038754002,-0.160440135160983,9.93519587889871,-1.37121965642674,0.032689971273745,TURN_R
0.68,-1.35339251635729,-0.0905238498959191,0.541658942910988,9.48851064662985,0.793176093359695,-2.82287909385896,-2.02988589108117,-0.566316154287698,0.404488909856117,8.98785746926451,-0.712093670337184,-2.77225537606951,-1.69578950275256,0.0961592182297518,-0.159414732393751,9.91064691912931,-1.25596069924428,0.0266240781877374,TURN_R
0.69,-1.32309305599864,-0.0981207524920821,0.53877234255741,9.53987007265892,0.534581792977367,-2.60013979241185,-2.02696665282848,-0.716710970430056,0.420893479730532,8.99063796574379,-0.861104948309431,-2.65307276633946,-1.64024390227171,0.0666209116191117,-0.149387222811123,9.84845459578314,-1.1837411394235,-0.0170649032031684,TURN_R
0.7,-1.28523428446802,-0.113285974511478,0.539869426340601,9.66401594707443,0.468118606571315,-2.40780376552133,-2.01703317381912,-0.76905500643861,0.456744467403964,9.34993674409782,-0.908354574963448,-2.94605455413642,-1.62096825209213,0.0421111884349041,-0.146912041049111,9.7626050342556,-1.13496253528208,0.161669784639592,TURN_R
0.71,-1.21128797332156,-0.108069039818711,0.540725210389572,9.74807087776675,0.376364534982604,-2.27694872704835,-2.03221684571261,-0.698009336752542,0.518476067196808,9.54888950193326,-0.840555337093339,-3.02221082708014,-1.63203780554282,0.0155506232252254,-0.157154004248405,9.71675404917029,-1.06813510102974,0.134437768438518,TURN_R
0.72,-1.1538246835224,-0.0895493783791939,0.530446321360357,9.62957942830673,0.476189830287145,-1.96553201513796,-2.06716217564192,-0.627134394742269,0.587338315208958,9.37198248227913,-0.582207439179782,-3.26957267801565,-1.62218390668944,0.0049653875821036,-0.165375625254203,9.79924289059135,-1.08854714515445,0.3074439860993,TURN_R
0.73,-1.13246248363808,-0.0775942192350282,0.545607063904074,10.0381685010321,0.598375991740803,-1.88180260597291,-2.0645242766235,-0.693521301473756,0.610059440168812,9.26007696026608,-0.207495812826142,-3.61514264583677,-1.62003483429543,-0.0130903776617339,-0.16667109327372,9.89550618354284,-1.19204765423041,0.343383165928268,TURN_R
0.74,-1.10830798085149,0.0001326863605318,0.552418211961474,10.1752499477884,0.628722922673414,-1.72545606560015,-1.9112897359797,-0.840670029480982,0.584973775001455,9.26432921132902,-0.039765095383473,-3.08006049929673,-1.62809302195026,-0.0163942370441524,-0.163752252584421,9.95587144384998,-1.30642370360202,0.442108774259566,TURN_R
0.75,-1.09244049879906,0.0501108817655534,0.532825853021665,9.87405054505284,0.801799600084381,-1.69971717019165,-1.77083653097161,-1.01008865716652,0.584123388043235,9.0886714366717,-0.866877748834369,-2.40172131265889,-1.62013462776636,-0.0205407573458424,-0.163937985108707,9.86639551367989,-1.35534441591143,0.493200726462083,TURN_R
0.76,-1.09266022959422,0.0727203109580889,0.523113822793767,9.82849250341653,0.816165530139832,-1.55177414643853,-1.71398193212032,-1.14962995400336,0.587227281788634,9.17640729405922,-1.7761943374812,-1.64370791012209,-1.57095536239905,-0.0385356455352997,-0.161359519687301,9.64409119821739,-1.31596614496176,0.628302736088068,TURN_R
0.77,-1.0423083083378,0.14726580837699,0.507253379853328,9.74709807473063,0.486555741936431,-1.71151674206385,-1.83398516764277,-1.23478462357919,0.548548391092596,10.0086132015442,-1.74840327769792,-1.02936238173695,-1.51090836753448,-0.0749626659714336,-0.156258661585356,9.41895433051662,-1.09589272744696,0.610471819585605,TURN_R
0.78,-0.98388904486946,0.201580397254449,0.505155349454107,9.68865163235507,0.704755034760853,-1.71477836737401,-1.86699283391143,-1.21772985017408,0.466972390426977,11.559709397926,-1.36384428834143,-0.820226284838645,-1.46687858626577,-0.088706433254298,-0.152579137842779,9.40530300094814,-0.804070266142189,0.656267996004759,TURN_R
0.79,-0.997550220024028,0.241281068147708,0.53047753406913,9.76755283683263,0.920357651555426,-1.60038506961285,-1.29753687814378,-0.818252338462441,0.43047161624725,13.2215215003273,-1.69352016760981,0.669511640139742,-1.46637204986087,-0.0849937803278936,-0.134867773606345,9.50115010996499,-0.431065394334986,0.556321436901511,TURN_R
0.8,-1.03340204733407,0.272187351482619,0.555627733284816,9.7490765636236,1.40866598113692,-1.52526203736769,-0.37004575618766,-0.212821453224828,0.483369546878151,13.6080461212776,-2.5860568379905,2.89461392129234,-1.47483201537422,-0.0765217875022362,-0.119867373287661,9.62047102985776,-0.204056022629557,0.535004966734749,TURN_R
0.81,-1.08025851634533,0.306273756114238,0.578870013556557,9.84875436093239,1.65334720799857,-1.50337082116066,-0.0292075277648379,0.1390637193393,0.567223479482464,12.1158487185635,-2.41796824032572,4.13613008291363,-1.49949499329092,-0.098320243272054,-0.0957977573175957,9.70041430956739,-0.0423106287052531,0.571883794960159,TURN_R
0.82,-1.19923611649991,0.365816330824057,0.605449141977016,9.92446333027364,1.23448557104223,-1.12880992141465,-0.396500924337509,-0.010538396698518,0.545894620496723,10.0665811437359,-0.462403568975239,3.42835017955524,-1.50544827253771,-0.125042254363617,-0.076774441034031,9.74950780374885,-0.0973643294490805,0.562485527135968,TURN_R
0.83,-1.35756235333646,0.379695534677173,0.64259914135356,10.0353633952703,0.954707066847108,-0.773097948424485,-1.00374450132525,-0.315804584548797,0.485816454272842,9.51608494827586,1.06445578248691,0.987786325133472,-1.49955182270609,-0.155548204184623,-0.0693377716104242,9.58647670301348,-0.231457078677223,0.59183583798926,TURN_R
0.84,-1.48673846977007,0.332618574425563,0.690070966234997,10.018752250329,0.989857904963827,-0.435397416959829,-1.44168688444908,-0.445419619527045,0.459332827885363,9.86239916625824,1.73831771180112,-1.19072081502137,-1.46994757371198,-0.192019148687673,-0.0634607202770872,9.33783666295736,-0.346684720188409,0.419445250130547,TURN_R
0.85,-1.57072585188344,0.285307512161292,0.73171432413685,10.150333731837,0.888144495537692,-0.223940560525737,-1.39511948003826,-0.346299722865406,0.510032374265017,10.2819680429781,1.70054394997236,-1.54940053093307,-1.4166250549719,-0.221864351026724,-0.061686437759618,9.13843526572723,-0.513185254908799,0.387604267421098,TURN_R
0.86,-1.61400749994468,0.273190228660195,0.767260855441581,10.2880270709945,1.15094753643091,-0.100007181090781,-1.1105397969506,-0.214121768575398,0.5890369686127,9.99945174350625,1.51881893219218,-0.921736805958959,-1.36274030767623,-0.262635008456617,-0.0565495838591518,9.09675969648629,-0.635717422980084,0.275043322725223,TURN_R
0.87,-1.62046772051137,0.302374957290494,0.790823669557682,10.5436246075758,1.37093239801549,-0.169400441519151,-1.04778826060078,-0.218963687164403,0.613157463848903,9.35469363092082,0.846070391433681,-0.679436377638625,-1.32276620484262,-0.307982091898204,-0.0361746759497229,9.08252849580807,-0.632393984318525,0.37112073669079,TURN_R
0.88,-1.56573726369877,0.386936437898965,0.782459377691943,10.6763414719436,1.39034062881694,-0.399996499228832,-1.2279047370946,-0.350661707323933,0.595710013879768,9.15625486840782,-0.0176934276078883,-0.94986970047253,-1.28311445999014,-0.345452471246141,-0.025087525422965,9.05780733228977,-0.454495645472492,0.219527200183716,TURN_R
0.89,-1.5297450419914,0.488647163794873,0.740028937093183,10.5645806959354,1.43947251630038,-0.207258036314233,-1.39812944883348,-0.321482265094471,0.61057381453083,9.2819978066128,0.0235990273199074,-1.85537381094286,-1.21564209738688,-0.362572975766341,-0.0180549757174618,9.00849534252046,-0.0879299714479862,0.0735107329940171,TURN_R
0.9,-1.55104175116945,0.586054932964081,0.677026432742784,10.0801804661913,1.26008680965086,-0.172985482955644,-1.57574945182544,-0.445941274681165,0.655563862277924,8.98657317228081,1.00096964518841,-2.77450190339711,-1.15493961845205,-0.357091122340494,-0.0213481262754233,8.8909653564974,0.266734407783866,0.0429202238519,TURN_R
0.91,-1.50592766463726,0.687328493981021,0.624308367149692,9.98000246070532,1.15619389131237,-0.301922024479956,-1.69640611414011,-0.466726223252174,0.65504244970795,9.27223187384849,1.54368191316478,-3.28414079721098,-1.10321443332613,-0.351586780156176,-0.0196752368175409,8.83401855118866,0.669563115565263,-0.335404000423125,TURN_R
0.92,-1.46287515435803,0.751599433149728,0.595288244862626,9.91489863764895,0.854365753100412,-0.299073355322359,-1.79283280430631,-0.420421610272777,0.590674000378032,9.12543320386753,0.741506420176313,-3.24650450939267,-1.05321534840667,-0.309488964214445,0.0067501565171129,8.9610630754603,0.90795966840263,-0.535895326353125,TURN_R
0.93,-1.45266034785416,0.844451028984537,0.567223203689594,10.1097728651652,0.391813739572948,-0.246887283991561,-1.8020008405491,-0.54581320376212,0.445490543759037,9.08212594332333,-0.21706341729518,-3.45841268214604,-1.05182525436991,-0.250699980116046,0.037725931256283,9.37608187187804,1.05031362415519,-0.280702116922139,TURN_R
0.94,-1.46803216766438,0.954071143278678,0.532841778462607,10.4899917033667,0.119717952885642,-0.21759074795608,-1.7130012841578,-0.592072836640525,0.338819074809681,9.3536067698325,-0.884827645789474,-3.41871463391601,-1.09601606510589,-0.183517464919015,0.0967225120593334,10.0882581765002,1.16502687405252,0.0265941794245385,TURN_R
0.95,-1.45718842483086,1.01482754216026,0.450555704939165,10.3570376353612,0.842535068213837,-0.35040339832271,-1.56631289639969,-0.497433319580762,0.316183536373147,9.74169482041518,-1.12593386948569,-3.16687212718992,-1.13078064510789,-0.153179322617287,0.144191475351999,10.8451165146447,1.24542042962447,0.154304735297742,TURN_R
0.96,-1.41704080971885,0.974526398943901,0.331559387960522,10.0190715139544,1.88623166789457,-0.959143694805894,-1.44383054548611,-0.414198790896998,0.328295660694604,9.97323919559789,-1.70471073533401,-3.34844477253826,-1.17174366238242,-0.125972166853425,0.172011661883672,11.3239149410675,1.37436606598928,0.163857197708752,TURN_R
0.97,-1.33779233338538,0.868523276875024,0.215558511835607,10.007515130988,2.63263328853816,-1.89643261218937,-1.30395048003172,-0.363975941629957,0.361734818524626,10.5958544587034,-2.90113927991579,-3.08929793528996,-1.18548347877896,-0.103891882159799,0.160243516519917,11.3368691863266,1.32834523841983,0.0557174075504305,TURN_R
0.98,-1.31852420845045,0.76239609288275,0.111566871350754,10.0429422574141,2.65069294559022,-2.74229658619214,-1.07690749452568,-0.305852343163864,0.386311132654821,10.7948480709208,-3.57421217990336,-2.40129885701776,-1.16474624873227,-0.0797077432177151,0.131769623862188,11.1191658116334,1.17398930858841,-0.0103143343264984,TURN_R
0.99,-1.42307029727367,0.716015598072193,0.0485678905306697,10.0439038268717,2.45608053732658,-3.9289915848525,-0.840247177048585,-0.132126899710164,0.415613196155863,10.4090142471561,-3.1842441668773,-2.47078976861459,-1.12596178197894,-0.0723233425197016,0.0909623549250576,10.7528090603103,1.03336496234749,-0.269024501226513,TURN_R
1,-1.63416548530731,0.726090330340914,0.0351129708156122,10.3011204712691,2.42327285492035,-4.19171328965976,-0.574445609850594,-0.0367422557910988,0.397983057670687,10.075817217577,-2.83649101336051,-2.60132316635817,-1.09689066544858,-0.0528479395314972,0.0541231844760989,10.4300671322802,0.989697768571396,-0.440501032924692,TURN_R
1.01,-2.01642982351998,0.793196297696774,-0.0051055080992385,9.96627017437192,1.95583958404624,-4.77564189773493,-0.394869692042668,0.0378233272924003,0.361217229806768,10.0163036688967,-2.49913599551349,-2.61081295275632,-1.09474030035038,-0.0030209816842891,0.0121662608725781,10.3450863281918,1.07772829406333,-0.179773187101983,TURN_R
1.02,-2.42329212433401,0.854814929111647,-0.0724928303726668,9.10710620492631,1.66174618745832,-5.67116691094689,-0.306714948911235,0.146749294893284,0.33874640882022,9.6284673345896,-1.42362718858515,-2.31466208577006,-1.12214862008569,0.0423463205616128,-0.0339135877683851,10.4657467384154,1.16992156069547,0.0473442070363929,TURN_R
1.03,-2.71304282393252,0.747361643408309,-0.102482677744348,9.07173490084918,1.65276521603733,-6.1042966686443,-0.278432907418716,0.20802753914458,0.302277124517011,9.38584603147061,-0.465554859931229,-1.96242676456097,-1.10697112272857,0.0883323895970219,-0.0823259533547787,10.6360126986733,1.21116145125538,0.309917468279008,TURN_R
1.04,-2.92691006631191,0.561531494724803,-0.0917372947622161,9.39038135131119,2.07844350103181,-5.99512117817721,-0.367242939943434,0.166736162233268,0.274119551629227,9.33963262926157,-0.315292150048004,-1.5459648316451,-1.10911240144364,0.106739684058946,-0.124081574437442,10.7353817321694,1.1982911937002,0.625916460246911,TURN_R
1.05,-3.18843193273337,0.365886367863162,-0.0439253011907767,9.45212437942371,2.74590122800404,-5.37405369833683,-0.503450668182507,0.116976287330391,0.256762234420168,9.34152767040172,-0.755685708372255,-1.76289591521986,-1.10576698675694,0.0796792391502494,-0.171293280841901,10.7089783602226,1.03722410947203,0.374500559609371,TURN_R
1.06,-3.56219101621617,0.109568096216215,0.0360527057125817,9.57435144124976,3.03196419097557,-5.10970218677969,-0.634337284617065,0.0771395643528131,0.243025179031299,9.33232712624079,-1.13404407002435,-2.45997342821553,-1.04763672058201,0.0114074110620589,-0.207672432446884,10.4729529832133,0.682505255421277,0.272351572347059,TURN_R
1.07,-3.93644249345063,-0.0754974662773535,0.115692561801613,9.72043957286549,2.30750241997513,-5.59514444845931,-0.638639835416528,0.0596564888134706,0.248675778089288,9.41022679014368,-1.8188940724646,-2.60170281454542,-1.00286276702158,-0.0641400085547238,-0.219985120769544,10.1473473837107,0.266145928821352,0.132560392052607,TURN_R
1.08,-4.15678860055062,-0.129118774555765,0.176303234411711,9.46874595368789,0.879853731929244,-6.10558632060729,-0.611723981694294,0.0339061982073189,0.270304374644298,9.3231678746468,-2.57030448203156,-2.7433214317751,-0.939335315768897,-0.10612041789942,-0.200272622523525,9.7974758689187,0.0582753339159896,-0.36046828477349,TURN_R
1.09,-4.21402707667521,-0.12079077101045,0.211167373205541,9.09095947426476,-0.490594783180257,-6.08933976557558,-0.580119318019871,-0.0108288942754108,0.296192277888046,9.142098620398,-3.04291679491896,-2.71445717053771,-0.8651742473902,-0.0964526855246944,-0.171922352254863,9.5100614600099,0.0632131856095986,-0.226515641417034,TURN_R
1.1,-4.13381970296286,-0.0923341247236719,0.22316250010414,8.99370786935804,-1.6360887517456,-5.75949726142299,-0.463846469052053,-0.0076343966606888,0.294701568040431,9.44094394247041,-3.06210625145664,-2.6913351432927,-0.805219581523649,-0.0844620750521805,-0.142619522333851,9.25755223965253,0.321083396009182,-0.288373671245437,TURN_R
1.11,-3.93787176783102,-0.0966091872095669,0.208093835340034,8.93804913303166,-2.64552292261447,-5.33629447391222,-0.292773471363761,0.0508036608126285,0.249801854280419,10.2994037987092,-1.52704664710295,-2.75294224865019,-0.738286463086666,-0.0758333940924265,-0.118647933157396,9.23825454981884,0.937154037600167,-0.451379391891361,TURN_R
1.12,-3.69316914358736,-0.0885427349202283,0.161572482655572,9.05927314412666,-3.75216195517631,-4.71084276702055,-0.185478001242874,0.112849868755139,0.194058919220445,10.3769912207096,0.439556696783974,-2.22108650436679,-0.676119425228903,-0.0539123849463594,-0.0978284103661078,9.40155608820304,1.49705264716486,-0.673231366108972,TURN_R
1.13,-3.44206037815075,-0.076619900686782,0.0897257899447438,9.19811273553096,-4.88712982374274,-3.94638117868338,-0.188866923986944,0.106234023958485,0.157027351521011,9.75899616281175,1.6324111033528,-1.65286146508705,-0.657686457487577,-0.0092320575974622,-0.073260665197533,9.68600877475062,1.77990800973083,-0.406416094465168,TURN_R
1.14,-3.21309236910678,-0.0680097665019682,0.0323300762581666,9.51306518247321,-5.95979358143123,-2.98863682811725,-0.35925643640236,0.0744714899891583,0.136860296867026,9.31684401503492,1.32275469458524,-1.32181533581197,-0.692892427353574,0.0245439161803494,-0.0522907018663938,9.8409333616322,1.81271965707177,-0.119363402765348,TURN_R
1.15,-2.95876182369413,-0.0691374875305728,-0.0094880211010886,9.56655893714723,-7.14329712718743,-2.09635960327509,-0.575645751454674,0.0089092078007555,0.131725203271423,9.11917720704392,0.426951713044889,-1.53902831543835,-0.735476575161077,0.0089936691178525,-0.0392641102562546,9.86914427068773,1.5953275726085,-0.0598397538503337,TURN_R
1.16,-2.63497999297715,-0.0877229436811447,-0.0259003603398846,9.28147213405614,-7.92479876572822,-1.39550436464613,-0.672172868674475,-0.0671138856355898,0.132168451374075,9.29058787386424,-0.855415096564452,-1.76319480028381,-0.788158124018358,-0.0225020622905754,-0.0275993929287127,9.77949027369865,1.2651437658766,0.109201539723386,TURN_R
1.17,-2.27892475471618,-0.114456123094453,-0.0214547504605217,8.98859492360876,-7.59206009831795,-0.748789720928638,-0.608702467362952,-0.0891860888495681,0.125686740024963,9.3647542940843,-1.86752243853686,-2.21521722965885,-0.835906102928693,-0.0519475967211412,-0.0312978292411888,9.65511647195043,0.898905145738334,0.0020240131050787,TURN_R
1.18,-1.92042754946949,-0.0817827080949114,-0.0025012986603081,9.08165265942413,-6.35768588100969,-0.533270351160474,-0.436510320173012,-0.102638869870186,0.116571940298125,9.47603100687486,-2.26409713645492,-2.39277031461444,-0.836322110184809,-0.0797479646417083,-0.0417802563074397,9.51615958779727,0.646966948997306,-0.133363565997534,TURN_R
1.19,-1.53245447696361,-0.061760379075283,-0.0090376988813655,9.15955983336676,-4.68595247143198,-0.443150360277941,-0.243403951038628,-0.0923855296397324,0.106452015908719,9.81121238570226,-2.07823712939034,-2.19611835552385,-0.827136805803698,-0.0788233261496749,-0.0622467101462516,9.37499188201257,0.557295545376402,-0.120098908883838,TURN_R
1.2,-1.16220884035635,-0.128212495180504,-0.0342527480577857,8.9389873969742,-3.21033420040607,-0.794926771440115,-0.107575733527144,-0.039380267165834,0.0951489152925629,10.0027845483074,-1.42143962859467,-1.58138037027866,-0.792682649510911,-0.0923595799281208,-0.0856271172003636,9.3328304428028,0.617965018346567,-0.258238728564104,TURN_R
1.21,-0.925384882894526,-0.216757575540763,-0.0656147619303978,8.910766300468,-1.94599230079283,-1.43812398310774,-0.085419401812093,0.010224109844976,0.0774890472361522,10.1396441159833,-0.690570070660183,-1.08974479109282,-0.742527958584171,-0.104782936484936,-0.109357982982782,9.30476415661634,0.738365741361115,-0.463554873738737,TURN_R
1.22,-0.708350373879572,-0.206429390365916,-0.0850072329620531,8.81020542554045,-0.482818815824766,-2.38581367105406,-0.140279316257532,0.0223057775840962,0.0495444491695467,10.1111943691952,-0.214642650802307,-0.978921626601419,-0.697113548150743,-0.106164659723547,-0.13306630596755,9.27638972464596,0.800032218555139,-0.63190026182597,TURN_R
1.23,-0.451381858575559,-0.151434854952939,-0.109504953162707,8.7821585582519,0.755314600236157,-3.03368465687098,-0.212555736298489,0.0222880363613066,0.018636392316494,9.73861156642032,-0.0249294077441221,-1.08468520620226,-0.653864369793748,-0.0947880261066801,-0.134425383057109,9.23002844826823,0.88003428478578,-0.555042428044798,TURN_R
1.24,-0.385307280402871,-0.0290146949768068,-0.112233854475427,8.77129879999926,0.883253769628508,-2.5629586122661,-0.241278667906427,-0.0030370484712388,-0.0159613987564896,9.47888576608199,0.0273213139498909,-1.21426043908979,-0.622712609440561,-0.0831562210165221,-0.123875380724127,9.10225592121759,0.921287909889302,-0.389866783119944,TURN_R
1.25,-0.541533323597054,0.0109104310342977,-0.0981802011164182,8.57345691967017,-0.155781763165848,-1.92929987813011,-0.27185676461437,-0.0295553881186062,-0.0386669750305145,9.34500840401244,-0.0686651464609422,-1.14383001202417,-0.611019724244645,-0.0952413399270371,-0.0822684880884814,9.01993540596644,0.936747717040744,-0.315190736502903,TURN_R
1.26,-0.795465300915276,-0.0204227711572546,-0.0533344572404671,8.23804106092278,-1.19407147195435,-1.60369690268385,-0.299540642103236,-0.0477795297961151,-0.0640644877727605,9.4450774586203,-0.0887618168371086,-1.74899413333414,-0.591231464070255,-0.11067557132721,-0.0265871670627998,8.98017989468283,0.931589948684494,-0.374592439579809,TURN_R
1.27,-0.924891429222202,-0.0918122640669733,-0.0075550147123133,7.77310146600664,-1.9197472461571,-1.90573823090094,-0.294505774295119,-0.0542002673222253,-0.0861765043048865,9.66044292624224,-0.0194894588256612,-1.6690072360311,-0.579662956993193,-0.138816915214511,0.0416807347490335,8.95896960791879,0.950720296258967,-0.43356003942002,TURN_R
1.28,-0.751309643103571,-0.218504164644712,0.0082560598733861,7.36566395912889,-2.59234869045986,-2.78513585737306,-0.272288162420086,-0.0587611539731899,-0.082386722876879,9.72731448045637,0.037315191142176,-1.56794291409512,-0.560262074060242,-0.172180160248763,0.103007942802686,9.02578653207581,1.07505299845857,-0.514851906560945,TURN_R
1.29,-0.440694967095759,-0.331716349638058,0.0003650963765338,6.96428220227874,-3.31593458295914,-3.80510592193987,-0.279928913087402,-0.0488161636199973,-0.0735705529574795,9.85352248522418,0.000968185713799,-1.72354209081672,-0.538588433607374,-0.206004673827899,0.165640751509516,9.05731870675375,1.21895908028924,-0.620640527318593,TURN_R
1.3,-0.0653070259461219,-0.523309881116705,0.0101143171622885,7.10479338389315,-3.98380682444717,-3.80628112533185,-0.274172435205151,-0.033707993742555,-0.0560228944577931,9.72741537122453,-0.234044985931907,-1.58121697298467,-0.530756848324068,-0.197791225693221,0.204813720973636,9.10251757530805,1.41638507798987,-0.361534429306254,TURN_R
1.31,0.276420093047308,-0.555445923409548,0.0437487203120272,8.96443259382851,-3.72647548427051,-2.52209377884662,-0.302720275176363,-0.0313830747023568,-0.0449631140035252,9.88620222324964,-0.613814301093441,-1.53448482747188,-0.546890293889655,-0.200657192608859,0.228590399543645,9.25945504909975,1.44789653799702,-0.405019863937202,TURN_R
1.32,0.481249056259033,-0.388763860296791,-0.0174058788978964,9.32723202528604,-2.51529767294012,-1.26775312318508,-0.420481337482301,-0.0645393122046004,-0.0205806587351278,10.1281055985678,-1.10802199289739,-1.65567401146337,-0.594272011189487,-0.254414761304848,0.22583416032766,9.41221523694549,1.29454509628188,-0.437051008029389,TURN_R
1.33,0.818035587166843,-0.437651968990301,-0.0718555109038533,9.41813594336278,-2.7573485570027,-1.88389490506255,-0.468994940051044,-0.1132975990365,0.008038153694773,9.92527967326768,-0.831158607413234,-1.44759071213724,-0.611099607349858,-0.270506071576103,0.204508073017485,9.58437357922273,1.10751112617927,-0.825884680194985,TURN_R
1.34,1.18018666223517,-0.659038999406297,-0.0526360368913954,9.82107960524477,-2.48977489422325,-4.09276618016611,-0.474626033776697,-0.0780013873166936,0.0463832916113883,9.64879691639338,-0.372086900973629,-1.86955943625386,-0.595708718615448,-0.288500726099266,0.171341656663005,9.82091715016135,0.752204714980007,-0.982610504258497,TURN_R
1.35,1.1868994279387,-0.868169620435085,-0.0015318610854888,10.6976258030957,-1.1231381173459,-4.63411276328124,-0.506770612035674,-0.0734391427470023,0.0364421058277904,9.51824889666769,-0.669151343646636,-1.49746936666722,-0.571323992259356,-0.231156454908364,0.119268244176468,10.1435279870118,0.445808955353124,-0.955867816001247,TURN_R
1.36,1.07534326713931,-0.979554260531926,0.0333930878052131,12.7439294122452,0.302245768608383,-4.48393452432432,-0.577670660991347,-0.0579380522488743,0.028203120771524,9.03968931293176,-0.943489108665149,-1.48663227237027,-0.510902902189152,-0.156893241479106,0.0530237016514675,10.6615250431783,0.13451221107455,-0.874564277345143,TURN_R
1.37,0.841770192085852,-0.823442304997348,-0.0297998385713102,13.2923745001062,1.94529844882969,-1.90108510652584,-0.623315404689067,-0.0176558319289431,-0.0064511814151439,8.9241242665986,-1.89579151277192,-2.156128087857,-0.442956184569668,-0.108198396847095,-0.0421191450077585,11.3299028701026,-0.291187272656104,-0.453598788494496,TURN_R
1.38,0.565531328630842,-0.731585670537941,-0.0936746945156854,12.1692481415217,2.16340289606435,-0.0663770527643743,-0.527929286531284,0.0543047886512973,-0.046814723279768,9.33398660980069,-2.52869337995317,-2.62375258854428,-0.358964376095191,-0.0797720331935002,-0.166687623424684,11.8881745016625,-0.772153705495737,-0.0932336887804918,TURN_R
1.39,0.320240114026773,-0.606915534254996,-0.100716786858858,11.0718558025407,0.816042397092959,-0.234546968562654,-0.387538730692614,0.0744866819193498,-0.0640766292022259,9.44832591086816,-2.48136583546367,-3.1452824868732,-0.258112094026661,-0.0770159622486008,-0.279691548149123,12.0219361442848,-1.34566414364424,0.182953267562596,TURN_R
1.4,0.216893701743484,-0.493260395883612,-0.0546070291884514,10.0760038535683,-0.544152029362428,-0.371414171999398,-0.118128626421075,0.0812549949751761,-0.0681289056581661,9.4607394390717,-2.09484485077859,-3.39233263902014,-0.143598964469679,-0.100915215714507,-0.365929831896169,11.6140125626446,-1.87053813118841,0.182898178502152,TURN_R
1.41,0.18664867700251,-0.385511938450521,-0.0113957422291465,9.51500182189436,-0.822486155479308,-0.151014692504932,0.195654735914247,0.09214435701796,-0.079383825457389,9.2431305924102,-1.30633898812886,-3.66707263548826,-0.0024667246901209,-0.136233281613771,-0.394793254473418,10.9001032421771,-2.08350184042693,0.127946159500688,TURN_R
1.42,0.19830011419947,-0.317243833456101,-0.0172959885970496,9.31607981954918,-0.525094966579497,-0.643239499661647,0.420207620969258,0.0907299956988059,-0.0879814598842698,9.05475396365879,-0.383783021502667,-3.83020153281234,0.149564395150529,-0.171813364077142,-0.375930248138905,10.0923397582027,-1.91418752281373,0.0880365129891422,TURN_R
1.43,0.309299152616228,-0.261398880660341,-0.065165142884933,9.54941217597468,-0.242680226068188,-1.35618054357005,0.515455063652488,0.0814544071104302,-0.108307409133764,8.96831748729511,0.478668294844724,-3.64924961285261,0.268985920483593,-0.200713077365834,-0.298704874148846,9.47846734457983,-1.34386078417372,0.0384878774363999,TURN_R
1.44,0.422451030891889,-0.22561495988459,-0.127034566214495,9.68670448100506,-0.190699740278247,-1.38616721961318,0.47537622377508,0.0691024345854098,-0.120819054679365,8.90956032750509,1.12610622037371,-3.3882351315879,0.327560157990766,-0.200621879893805,-0.190265789741198,9.00077476039884,-0.545007436707356,-0.0230496963126465,TURN_R
1.45,0.461752849240107,-0.191185701395542,-0.162456644012027,9.76328972675853,0.0167448714865626,-1.20623934846663,0.329739717816148,0.0076533130104919,-0.135973174800446,9.01829593932515,1.32651020401981,-3.15870274007287,0.341266174808404,-0.139664894617931,-0.0932010832173614,8.7201031529592,0.414881650949294,-0.174297728376658,TURN_R
1.46,0.512714968046807,-0.162646463153413,-0.186327303215661,9.85198422487184,0.0247822144354134,-1.35309721720759,0.149079866693976,-0.0630052756498736,-0.145932084842815,9.23601962396479,1.26936804350818,-2.90263137339273,0.355175397061495,-0.0364197401421894,-0.0178376596448072,8.73152583481993,1.18290001430268,-0.317122476489341,TURN_R
1.47,0.585511595876598,-0.146580306859301,-0.202937004484465,9.87526610326327,0.225527655257009,-1.60889050140213,0.0457973627651277,-0.088620387254658,-0.139638802888251,9.43929357113067,1.65645943263361,-2.70986955765863,0.368103945254784,0.0479369273475275,0.0325686570621674,8.97398627418153,1.5880208835932,-0.37355159481706,STAND
1.48,0.676174276249646,-0.165759935363661,-0.225353938635998,9.64817340556095,0.499224903394776,-1.69874306469069,-0.101702871835777,-0.0923574561966331,-0.134203559393894,9.58950058434148,1.99821337749515,-2.32720480317069,0.321701705775274,0.0959578289602887,0.0691378479574143,9.34460935381745,1.49179758292809,-0.153953005120434,STAND
1.49,0.726427557491686,-0.164652925410305,-0.239461327888642,9.46523112511672,0.882586419685532,-1.9164838509052,-0.257160927740779,-0.0505286261965343,-0.0946288224660915,9.5961756486646,2.29915286248613,-2.02088325227791,0.231364819100269,0.115312238703356,0.103575051525934,9.63138106301722,1.17374638791427,0.127629771562619,STAND
1.5,0.761769124668477,-0.176825366704981,-0.24811703518528,9.48301067292338,1.02058935138514,-1.98840288746429,-0.412444870023278,-0.0278632641481758,-0.0587502809851098,9.7447274548005,2.10767576827494,-1.48607763512386,0.122179753182528,0.107878092465639,0.13131046288987,9.71926950210725,0.71606455765311,0.366338534105081,STAND
1.51,0.707112663182956,-0.198147587284964,-0.224389595885893,9.51267843512404,1.10293217610888,-1.72226369889127,-0.591715887061195,-0.0215813897077262,-0.0326769110704407,9.74925013214309,1.85948241796929,-1.10245925436338,0.0402119070297248,0.0872725956648751,0.127463671313255,9.7278912942573,0.396640247519229,0.335775471856787,STAND
1.52,0.58283073854079,-0.222329660045556,-0.188140166168664,9.6022064256091,1.24878483144609,-1.51266360039986,-0.704534590295908,-0.0127475728888056,-0.0198422990008871,9.66858441663679,1.9548010212922,-1.41497976193005,-0.0059376060709766,0.0401244131365226,0.0809358520169649,9.63860755106354,0.34023144034832,0.156025269366782,STAND
1.53,0.440840449943041,-0.235063212224296,-0.138413898350568,9.72991132574228,1.43031721592996,-1.65187066213524,-0.762737881427823,0.0337520381127053,-0.0133536341474552,9.60828760636841,2.01642485916637,-1.52829050778308,-0.0134494718999442,-0.0058335042650063,0.0089636397087066,9.57533809233031,0.344976609840579,-0.121847912153199,STAND
1.54,0.333645671660603,-0.215375700361511,-0.0960678038794774,9.89217305344794,1.68937984186774,-1.79510419225809,-0.814613787702185,0.0782510237348632,-0.0239650929706665,9.6913522275284,2.05184452218508,-1.56026886764103,-0.0053330967335221,-0.0397896734507667,-0.0587003454262604,9.59084261423975,0.358151874649999,-0.310564912930937,STAND
1.55,0.171468884844579,-0.184325749129462,-0.0724014034481003,9.80830014091295,1.62997506527026,-1.98269088205807,-0.868936288682931,0.10416208419209,-0.0385253142827202,9.58778854936146,1.73091867381148,-1.74724127730475,-0.0155317395382831,-0.057803175274852,-0.0978922545312259,9.64925108596056,0.321004603558811,-0.242618576971131,STAND
1.56,0.0136673283066463,-0.182143588271161,-0.0339666524307773,9.59749626204982,1.57094019693303,-1.93280055407246,-0.966179564419027,0.116048101059687,-0.0406467228978534,9.74953013816378,0.989793568084669,-1.91995217887703,-0.0421958260789385,-0.0761073639651505,-0.115236088094305,9.66848446489497,0.251717076039573,-0.379787342137034,STAND
1.57,-0.121916545486178,-0.191028083017597,-0.0058062741981354,9.42325345638916,1.91559437142751,-2.03602252450468,-1.03480629969268,0.151265745075919,-0.0343567943322664,9.80236570969812,0.294721911104277,-2.49850861459407,-0.0702787647259435,-0.111882546804945,-0.0929915464874158,9.66905474484231,0.278290170430972,-0.544200523525077,STAND
1.58,-0.219998015542247,-0.193312560952436,0.024708855145663,9.39498252798523,2.0150637079213,-2.36846683009903,-1.00133834952926,0.123388166870706,-0.0221497681108922,9.74527361804412,-0.68134881821321,-3.10485840016437,-0.105991720506116,-0.124881631268876,-0.045554195033575,9.65493015463337,0.390522520584451,-0.693912803199051,STAND
1.59,-0.328653787947462,-0.206348714256705,0.0625746956703699,9.38891961229539,1.89301981973102,-2.380424023661,-0.891319921764287,0.0722379136354554,-0.0042647240483476,9.66191201950827,-2.07648847869289,-3.25189021800928,-0.153429673215187,-0.140195888814727,0.0090634468231162,9.74989639120827,0.50690267920173,-0.797077938931261,STAND
1.6,-0.423315916502061,-0.209504897835091,0.0939162067954778,9.63216716380296,1.59271592092398,-2.46574074506785,-0.707760492751876,-0.017298581644584,0.0096835569419843,9.54392194153427,-2.9387064602618,-3.48861962051208,-0.207157736119596,-0.155992040958765,0.0742617229896164,9.86753966098258,0.59825867159763,-0.84980154765774,STAND
1.61,-0.507995064673839,-0.19336953044245,0.120515674491486,9.71138688150932,1.03690976076467,-2.41273577757267,-0.468032468699854,-0.108382428684528,0.0145712504164676,9.47676272956142,-2.72679471053019,-3.80052662016442,-0.259684788430047,-0.15995136694887,0.1272783502523,9.92811884646105,0.645783913026912,-0.788644060996837,STAND
1.62,-0.543508811746728,-0.191244902339117,0.129685399459877,9.50741087984521,0.653585819368005,-2.38217343762119,-0.109993760756866,-0.0733006210395856,0.0199616616419273,9.38178543999416,-0.0687666906933419,-3.46127527156023,-0.284617599384298,-0.149111656199445,0.15554343580002,10.0055845034789,0.575909882265362,-0.720524886498271,STAND
1.63,-0.568240756656937,-0.184802125446712,0.124368820156352,9.46294093047225,0.0757678636048642,-2.34934518184375,0.0609829307370208,-0.0839410981668625,-0.0099748030113901,9.20112892369246,1.41044894974419,-2.74559988758015,-0.278407821547995,-0.13663103736341,0.158022549640096,10.0581422366009,0.423724419718428,-0.707193159282854,STAND
1.64,-0.611682023367583,-0.140886271863447,0.114962261214008,9.41677369170629,-0.391200959637382,-2.61336209363415,0.0173495478296467,-0.0966697695940095,-0.0335352619113133,9.13794389847564,1.5966549520844,-2.2183028469941,-0.265064009773283,-0.121876890877765,0.149044156352858,10.0920197197306,0.158903276482272,-0.683875151483809,STAND
1.65,-0.591903633748478,-0.131669868080306,0.115024610622761,9.39513281085843,-0.493737786896293,-2.50622494277536,-0.0927018996874079,-0.134433562145878,-0.0285834676459689,9.10576173324918,1.30381690843172,-2.2347716996817,-0.25027105784917,-0.108520429701715,0.120580524031613,10.1369346722808,-0.145102934338464,-0.55421861897856,STAND
1.66,-0.564165414841962,-0.107492084288582,0.105889762546144,9.49452526542611,-0.372217673573795,-2.52843837663747,-0.179374406390777,-0.154771504978325,-0.020910001266981,9.14163639288469,0.828022988276268,-2.21097126700859,-0.252109170307076,-0.0891002818032426,0.0937213329079483,10.1319103773123,-0.436083133788762,-0.257732970409383,STAND
1.67,-0.554081905538639,-0.0804603833242175,0.0957520830844626,9.62338608569508,-0.3269244254474,-2.87253488285468,-0.23346006466881,-0.15378082683407,-0.0179570413340271,9.32430374675855,0.367342177498984,-2.28243362651925,-0.260316946122486,-0.0489743763037148,0.0623691150649756,10.1611420602556,-0.581113761089541,-0.137458819457106,STAND
1.68,-0.503326890153658,-0.0539561251165583,0.0745600728837546,9.55115418183673,-0.365656211368089,-3.14508729338246,-0.228828761513653,-0.169553730375747,-0.0196663870022342,9.43728919607189,0.0010343638808834,-2.66226228593294,-0.249076996783637,-0.0209927457111002,0.0383597497834604,10.2071507063814,-0.544472369191538,-0.0527320190632381,STAND
1.69,-0.397958639833114,-0.0454138031082947,0.0513483679763542,9.38869185598774,-0.456960197335454,-3.18672837435953,-0.214178143761866,-0.173452441530612,-0.0266327347380653,9.59463907387314,-0.388369281642267,-2.82474195158772,-0.22232966162762,-0.0110645311896504,0.0247853839350677,10.1642312441298,-0.466919680704783,0.0090472113773282,STAND
1.7,-0.293519038353413,-0.0598540165375455,0.0342212375167473,9.19220497009172,-0.56356286083026,-3.10254019091127,-0.167841641298111,-0.197645444733679,-0.0389393655726916,9.59268665043048,-0.806217152910965,-2.91206078352354,-0.174891340846359,-0.0186216873663998,0.0219975976281489,10.0379332493713,-0.341209665467389,-0.198748243724428,STAND
1.71,-0.185894112826364,-0.0786695703298355,0.0285014619675744,9.19501741285861,-0.413157712818312,-3.05420216818462,-0.0918658511961422,-0.172960698744508,-0.0395030814705537,9.59440478860721,-0.80667175930933,-2.88991601957811,-0.131157724275369,-0.015489027827188,0.023281026038559,9.78512046694257,-0.166119534863876,-0.164207024256066,STAND
1.72,-0.0974352819757297,-0.103385443905243,0.0201576938207534,9.27886461715193,-0.242066372098155,-3.13826220274456,0.0287585385100703,-0.175759426626746,-0.05283735589305,9.51327424094554,-0.503753997667677,-2.61737449644469,-0.100275546854887,-0.010748344329532,0.0340975857820221,9.56400601881669,-0.0509337119524349,-0.144642013141366,STAND
1.73,-0.0384685669596252,-0.103365038787716,0.0074814412338198,9.34010196793964,-0.0921881259158947,-3.00000155486066,0.0886785889933464,-0.181155420323912,-0.0619405939026382,9.43546854317527,-0.217165196678839,-2.4498890050885,-0.0541180631128536,-0.0041112397621409,0.0371561129757794,9.52310572043556,0.0641126505331053,-0.217409991419077,STAND
1.74,-0.0441355335418752,-0.0969123968596838,-0.0061510119094204,9.4349361845755,-0.0085617030282017,-2.89349738032859,0.0959069341871974,-0.186841865142572,-0.0733016639794535,9.30458631375332,0.072682979671081,-2.47714203530144,-0.0240620941757477,0.0033574551098918,0.0418148931198201,9.54457037231659,0.18975885388775,-0.207341387130177,STAND
1.75,-0.0542624384735797,-0.0626766785463594,-0.0180731838291113,9.45288520339047,-0.015141011602316,-2.73158211434009,0.107412341049452,-0.177693412279621,-0.0740076394911378,9.35479940423527,0.353318673388247,-2.56688998387789,-0.0083194759599052,0.0230329654295687,0.0380833190285365,9.61820415046862,0.217730626036145,-0.178893733940271,STAND
1.76,-0.0923516327676283,-0.0246526358868066,-0.0197803208160254,9.41738983202756,0.0778025004457297,-2.67747413451355,0.146617753295388,-0.134711202175122,-0.0714216755156232,9.41920972328835,0.734553757850392,-2.44881520113298,-0.0060259829183733,0.0400325725691921,0.0330549672210503,9.64603721524426,0.184075612574739,-0.0839180406520072,STAND
1.77,-0.136586033666327,-0.0154181749398339,-0.0202603217573857,9.41040080168412,0.0704062671448919,-2.53141834565245,0.174881331683123,-0.116366630799093,-0.0791947906776098,9.54256658316698,0.833341214271357,-2.42248796675039,0.0031918227146626,0.0618585026146042,0.0282329494506187,9.81337038991051,0.164351124981981,0.0143042144312817,STAND
1.78,-0.191793223527416,-0.0028938025213312,-0.0178055477366379,9.4538280494953,0.0270410222820916,-2.44172821871287,0.177246825099583,-0.0828094058730811,-0.0759688177688771,9.65827175493105,0.608523802057751,-2.35189513409233,0.0110058862372511,0.0756275931388118,0.0177707918222778,9.92425803697463,0.293408534365925,0.0504450859942992,STAND
1.79,-0.183413092256618,0.0099225901946522,-0.022633058955246,9.52379171767954,-0.0847522758461818,-2.67846081453736,0.176150952057291,-0.0506243620280575,-0.0741603679860689,9.63203371177331,0.484708880248256,-2.33501273360303,0.0242573703348918,0.0790388726056618,0.0116877020983027,10.0638536184712,0.305390772278729,0.0596332906060518,STAND
1.8,-0.132152452888208,0.0166676395349056,-0.0270217167059298,9.47924976900937,-0.170312056041132,-2.55435659354871,0.145066739297274,-0.0250751406998121,-0.0662895716504445,9.61622668496121,0.384839614743048,-2.54499086042352,0.0378266104748087,0.0721228728200978,0.0111462903058975,10.0039656320267,0.268153919098178,0.008358190728807,STAND
1.81,-0.105243482851364,0.0138576803887889,-0.0351972847070525,9.5694569895981,-0.144210318033669,-2.61191517272351,0.140508710183983,0.0078608352931992,-0.0548659484832744,9.5314879873875,0.370232403732017,-2.73799768082253,0.0344499045292799,0.0698726942384251,0.023455464704761,9.91445172556344,0.222540458145346,0.0016816107765328,STAND
1.82,-0.0342483526552441,0.0419639391499779,-0.0417969406829313,9.58835359725648,-0.0490674072682412,-2.75371504710318,0.116571267756744,0.0202304463800567,-0.0415150239486484,9.49735017315091,0.365742287730581,-2.70287572264489,0.0483157969729761,0.0628147272661813,0.0318447977885996,9.80920041674001,0.205618300166829,0.0023620960349785,STAND
1.83,0.0157072981573052,0.0597196892395331,-0.0523854096904021,9.4784892320693,-0.196100723368516,-2.64653752936006,0.0860845795875934,0.0380175963787424,-0.0240047623353595,9.42161088163318,0.480848769022682,-2.54974344973222,0.064420946337678,0.0721323123230558,0.033648030102903,9.67917540762792,0.235042465909474,-0.0714465894045132,STAND
1.84,0.0417072103419562,0.0478743598391647,-0.0523614415680736,9.46642014071813,-0.0974738455989318,-2.60924705665441,0.0462457434595494,0.0263119916831544,-0.0205566385827244,9.38787586898827,0.641132479250043,-2.55579834072306,0.0868065638688935,0.0672671309775457,0.0285697125817529,9.66827535198439,0.274207347289704,-0.170746517152942,STAND
1.85,0.0662632533328522,0.0511828443071753,-0.0544750003726163,9.43847429918265,-0.05168121341325,-2.57380682074315,0.0186380594730533,0.0228569235893588,-0.016173790762993,9.37171383189867,0.673265529405475,-2.53058182615462,0.104061393062986,0.064390390548726,0.0203399187614365,9.67403152948797,0.367838598874099,-0.290168931698615,STAND
1.86,0.0750481877150917,0.0398857719084179,-0.0509716101581376,9.41863655118635,-0.0543334432417159,-2.54271829862722,-0.005202426604054,0.0054356018620515,-0.0164332837442068,9.42516525032988,0.619526672199495,-2.51959561718396,0.118712148380575,0.0630593887884771,0.0192679670717438,9.74368375372351,0.447581367781192,-0.304022981082077,STAND
1.87,0.0741685146803346,0.0266967252588964,-0.0486133922327323,9.50700337908064,0.139508854565892,-2.56297050385941,-0.0214830403467672,0.0063679423002345,-0.0236451201757612,9.50759935655433,0.55014681574189,-2.51743266111478,0.114604237900437,0.0680735436711065,0.018286672036011,9.80377303336187,0.460397109447873,-0.388260823632426,STAND
1.88,0.0972487361715883,0.0332120343382963,-0.0526135085733766,9.48817901698053,0.239476595182288,-2.5768105157523,-0.0001528451012659,0.0219664874376328,-0.0342912901031873,9.54549885811187,0.431928304304017,-2.42816250242233,0.100548734787152,0.0713040832644,0.0095017931954238,9.85175855979825,0.411218923293086,-0.411020359279446,STAND
1.89,0.0965330549029388,0.0496397085030483,-0.0588003940893074,9.49058365761107,0.18149006177729,-2.42909266522924,0.0208448567082326,0.0308517522515009,-0.0345553748234131,9.49109169806903,0.188638525937374,-2.41634614649652,0.0853370396614727,0.0785009974797523,0.0030667208016145,9.88553896876167,0.325628105730505,-0.395664092602959,STAND
1.9,0.0595161709064485,0.0527606733303256,-0.0557699861365023,9.51160277173147,0.426630540438018,-2.28974477902131,0.0447450441341084,0.0364653596829203,-0.0419910814065543,9.44662070419875,0.12060692384523,-2.50503036259181,0.0745939212713328,0.0748861287738205,-0.0038970868931164,9.83727767263199,0.289128458356967,-0.347185825116819,STAND
1.91,0.0507075473574688,0.0582645534558048,-0.0491436649749825,9.61521871430506,0.504384304344379,-2.36624379598134,0.0924135047800178,0.0374615575186631,-0.0448461469396295,9.40495920055646,0.0693888343155011,-2.69252727263007,0.0678055412113975,0.0771457307612447,-0.0139623239526233,9.75269239646835,0.279502214442257,-0.318728884073599,STAND
1.92,0.0396085006310218,0.0735323349139589,-0.0485127869152186,9.60388845090077,0.45429929915459,-2.33708307388437,0.107081422794107,0.0454127945032333,-0.0440925815107444,9.47265320415865,0.0987089398598636,-2.65201825121332,0.0565686803316655,0.0761290184398606,-0.0182152339075371,9.71476229078476,0.33182276141853,-0.355145976622168,STAND
1.93,0.0347064267811404,0.0775525221903298,-0.052143115575693,9.54917890039277,0.497390549824013,-2.3213720176664,0.128071313281963,0.0260079090685661,-0.0407302427577853,9.46919861868116,0.145664858974875,-2.61085348584738,0.0504626591112041,0.0629340710151291,-0.0226066787759243,9.64630306320625,0.335408365537265,-0.341201790513093,STAND
1.94,0.0301125700307603,0.0674138262276932,-0.0535287296732051,9.52970322853132,0.451999209614543,-2.36420272709328,0.142393560058195,0.0216896163770302,-0.0366019023547323,9.50407718866978,0.350484313923146,-2.68094205974484,0.0453555363711774,0.0508370516849235,-0.0204773345051353,9.68074335750095,0.336434434775126,-0.339539258680341,STAND
1.95,0.0339007120303026,0.0602235091169899,-0.0556459190809004,9.50422874427978,0.371665766013702,-2.28608094746293,0.137236589609003,0.0002868558471678,-0.0320620985595915,9.44801271439953,0.58715804271687,-2.62957393095734,0.0485229922002839,0.0388700740647407,-0.0130999549250823,9.66461688779276,0.32585073090223,-0.32165499140878,STAND
1.96,0.0238829763420502,0.0527080788244985,-0.0526864749420457,9.53657891535838,0.311342962378997,-2.33709568938434,0.114361464917358,-0.0154607600442459,-0.0307803418701225,9.51912862395331,0.625204732210066,-2.44841102045514,0.0557421822730366,0.0314481618711351,-0.0029827306952035,9.65970607499975,0.25094838817049,-0.347225807520142,STAND
1.97,0.0414605432412152,0.0400953865357281,-0.0498158277692287,9.5038898959439,0.337604394913617,-2.37700531333317,0.0886089449446329,-0.0114618322442724,-0.0337169928294384,9.51258905434167,0.757525524960422,-2.29626045475573,0.0608928713501162,0.0255726752822454,0.0088057814785882,9.67832689189394,0.27935805229142,-0.340808874591462,STAND
1.98,0.0236830519759326,0.025208169998095,-0.0421442688796838,9.57837971535886,0.397321215867286,-2.28085125413068,0.0493187625895793,-0.0206361058254518,-0.0301898454776093,9.5029032513813,0.828765386843504,-2.40099862341733,0.0683586106020321,0.0219485245880947,0.0192212375306568,9.70863123882796,0.284965573839342,-0.383606212214465,STAND
1.99,0.0273434117799552,0.0123255736672205,-0.0361965478941716,9.51644339788184,0.567659398148202,-2.33705039734299,0.0020371663444407,-0.0128247363838251,-0.026659330596302,9.49109875836751,0.696285513787834,-2.539632172371,0.07334654424353,0.0129016451933573,0.0322514817179682,9.77786098391556,0.322190884261485,-0.395660530012042,STAND
2,0.0189503910408376,0.0213134367608569,-0.0357120109961986,9.49923614520266,0.475364836591185,-2.4371126663656,-0.0309541559282481,-0.0030613048519988,-0.0182815882206965,9.40522824109217,0.486286719969084,-2.41586132557815,0.077255885119381,0.0123233579424865,0.0405195688649973,9.7807714671539,0.377030266227762,-0.383547288915979,STAND
2.01,0.0050094086827986,0.0329746765417666,-0.032862461432493,9.44389029754015,0.473203730764477,-2.5024426702513,-0.0268072150838352,-0.0054203274659256,-0.0200005384489425,9.43081926219553,0.364928366323878,-2.51422466629092,0.079510036262056,0.0100683735429253,0.0462183899997589,9.81118751420774,0.379538711604637,-0.427666432026263,STAND
2.02,-0.0318962570840516,0.0380030485924951,-0.0241272987882112,9.41633508941907,0.414146450739531,-2.40079616390202,0.0086026743175901,-0.0008415712323692,-0.0173586659677882,9.42980720816593,0.14892455675471,-2.51511255369831,0.0748052935699488,0.0049501310763945,0.0474218100189182,9.7852870873777,0.359653374018946,-0.340970391598955,STAND
2.03,-0.0652901899872485,0.0400968737843889,-0.0156004704182117,9.47309332544495,0.503883259633228,-2.42304377847734,0.0386556262431875,0.0119556140808322,-0.0265188061060268,9.52209118997441,0.172094239838727,-2.59282915552466,0.0713367899179594,-0.0035211845949757,0.0478385622757174,9.75113462827131,0.355720781544457,-0.337565648368386,STAND
2.04,-0.0717432540145917,0.0514332574680415,-0.0152853522448599,9.53927367420717,0.420201784487197,-2.4302593672001,0.0386556262431875,0.0119556140808322,-0.0265188061060268,9.52209118997441,0.172094239838727,-2.59282915552466,0.0629009925579231,-0.0106935046391842,0.0524659022433473,9.74896902025351,0.333664910446048,-0.355924340833013,STAND
2.05,-0.0970177540143887,0.052492619484604,-0.0192700052015136,9.53095170094744,0.177986344831414,-2.48666996092902,0.0796993879297802,0.0212073682578444,-0.023074797281085,9.52758033984884,0.194753463886319,-2.61760939007235,0.0531307125170844,-0.0093311482904214,0.0434110754526957,9.73514636623566,0.333823989773644,-0.325912211509668,STAND
2.06,-0.101038282376129,0.0280813740931454,-0.0145033997814362,9.56260295208565,0.0794418020587793,-2.36877927283037,0.104331972038767,0.0307809069528845,-0.0181329994098184,9.58289474868594,0.275877947589239,-2.58235667984127,0.0399832440073864,0.0065213517655911,0.0385416751706669,9.77017143569971,0.370427853651856,-0.336328234622811,STAND
2.07,-0.0788449636708541,0.0313998414711608,-0.0202236954355921,9.52507939896857,-0.0174845163202371,-2.44123682483069,0.11603031400367,0.0274714312225706,-0.0202219637387202,9.5037835522761,0.419561700437528,-2.49819958640787,0.0413062786864772,0.0076404151807026,0.030651505668862,9.84013983626527,0.448368540466032,-0.356063965950384,STAND
2.08,-0.0229000049506485,0.020551352071101,-0.0283642977037292,9.42209276693013,-0.109859496268405,-2.40842249398156,0.103741155789799,0.0220365505861631,-0.0164108616985359,9.45889585045534,0.568636247603062,-2.44903227902662,0.0470150448893079,0.011371012486789,0.0154010930691074,9.8705101413094,0.452725462508274,-0.400272543703103,STAND
2.09,-0.0015286929936245,0.0127408647775262,-0.0279105397414128,9.41991483997749,-0.040659391572333,-2.30437511119322,0.0810117270838725,0.0096403091723159,-0.0190334003269951,9.34889224813985,0.569428293092844,-2.5588379365637,0.0462678524011109,0.0178977554364845,0.0005450656965056,9.92530189228942,0.454744879731247,-0.375048506099678,STAND
2.1,0.0096667372843266,0.02134320583739,-0.0269302316612862,9.44898971748164,0.106368523985854,-2.49433821030806,0.0538342366363718,0.0003666976442196,-0.0238737501846839,9.35642158894119,0.597084290425931,-2.51212557653697,0.0415613520058397,0.0268503716771881,-0.003606990844672,9.92651386734184,0.388187723323774,-0.34245097711972,STAND
2.11,0.030143833158438,0.0242481275721735,-0.0245881385607961,9.47440011247143,0.280867051685258,-2.41121692647861,0.0396786150692448,-0.0078804796310277,-0.0293341205595715,9.41457491243531,0.531439905750767,-2.53396537193668,0.0333824657420446,0.0356204010255579,0.0002539667239416,9.93067469591741,0.380445132995937,-0.298130391435406,STAND
2.12,0.0277995781881224,0.026195872879049,-0.0244294846290042,9.58360915935491,0.440681682987785,-2.26405380844908,0.0324277860610724,0.0046944695117774,-0.0261670204239003,9.48783391741149,0.521024738731183,-2.46228217011043,0.0244568300166409,0.0432113443226989,0.0065226994375308,9.8452405798835,0.328536935699414,-0.266814859443724,STAND
2.13,0.025098799036216,0.0225460175747318,-0.0201809418548948,9.63180459295656,0.451355937587862,-2.26646071188506,0.0139018740942622,0.0169373390728223,-0.0216671226381785,9.48264943380323,0.466946153839357,-2.44047736378618,0.0258063621334244,0.0506721345806891,0.0105080213938158,9.78499920525506,0.357129434017688,-0.351715706056411,STAND
2.14,0.0377480064321415,0.0238870420236808,-0.0251409230357283,9.62000096725479,0.480868290214787,-2.33525122841781,-0.0006244941746881,0.0173047664569093,-0.013085594015588,9.51502733016794,0.467951061125798,-2.5460766738279,0.0237449287366831,0.0522252253747489,0.0121614460677172,9.7672091249346,0.368845788824127,-0.357014724600139,STAND
2.15,0.0374879740117958,0.0161923379020789,-0.0229985753330505,9.51503671720915,0.408821942078188,-2.27712921042063,0.002265869608159,0.0319974586642874,-0.0144060288416877,9.49089721608206,0.439166232378506,-2.57323267818329,0.0246653832004531,0.0527228881196876,0.0171227001956086,9.7308123695265,0.351399440462362,-0.365839099463302,STAND
2.16,0.0178982161789883,0.018593954142276,-0.0195475728409692,9.40765426869446,0.419879172023937,-2.33728374200599,0.029861878268205,0.0196442342507484,-0.0161659075152087,9.51998761607136,0.287429494078889,-2.60055154416013,0.0281387849237642,0.0471264222484958,0.0220573990477816,9.73667672511792,0.316925931515994,-0.295663145360709,STAND
2.17,0.0004603787415754,0.0232434749306265,-0.0123331464590391,9.49135003995588,0.467486054154041,-2.41546009906765,0.0387199849414114,0.0050305513257489,-0.0209411273948823,9.51790949794085,0.282518741893095,-2.67245134795455,0.037746379021545,0.0425879905298443,0.0323569699393318,9.75324159118488,0.325999609699765,-0.305151292640849,STAND
2.18,-0.0234663622893311,0.0351318264822046,-0.0126865375415037,9.49901066260455,0.443661124248265,-2.39020134429666,0.0542646096566685,-0.0088726779532963,-0.0315913490104012,9.42186925368078,0.237324249438543,-2.70681847203275,0.0450326448221024,0.0377362084072242,0.0397228998831801,9.77442868625903,0.368212725060888,-0.280419977588632,STAND
2.19,-0.0467456876364394,0.0286149533118513,-0.0127846659814752,9.48914363010314,0.369297621920527,-2.3901711701573,0.0749532711598091,-0.0116499550136751,-0.0372626372968259,9.38019734461869,0.250064363677772,-2.88721958914643,0.0413027619121546,0.0356894475137235,0.0431313896459188,9.82837656915192,0.433487384492662,-0.283551719979351,STAND
2.2,-0.0752681785041411,0.0245878771602023,-0.0045735938301143,9.51432489934045,0.397369147469135,-2.3393890948343,0.107680670196467,-0.006097016822031,-0.0421809622048016,9.34574831950234,0.314128801713672,-2.84328886701509,0.0330226991061804,0.0355644537288052,0.0378847012527211,9.82548459437892,0.478814349703216,-0.328342435267519,TURN_R
2.21,-0.0658209601637523,0.0286871711560098,-0.0033485299868445,9.52123976889188,0.352910316664535,-2.36449452377012,0.115569382466166,-0.0100472772421372,-0.0496298246835898,9.35056809127133,0.429608359108199,-2.68242835161329,0.0269775278661815,0.0351294113539466,0.0340434408516959,9.86313740726582,0.53280806031398,-0.317837632007265,TURN_R
2.22,-0.0752165146830662,0.0323919849511757,-0.0106018856293987,9.49210171209763,0.336198708592496,-2.18715975912765,0.117909871892322,-0.0164835253606397,-0.0480379304026392,9.43382543493017,0.530882437203396,-2.65438963549461,0.0202405771339814,0.0475568827630822,0.0271926353747102,9.85162583488063,0.552033843259402,-0.265484023816746,TURN_R
2.23,-0.108387750197243,0.038014384909474,-0.0120710320561244,9.50171713850878,0.291414892881972,-2.18726175301703,0.118282639749965,-0.0020938155039609,-0.0429989347560416,9.53166528845276,0.619181968855641,-2.54391051192081,0.0140984221092934,0.0445813325056005,0.0261409894035662,9.85342494749154,0.524670520856895,-0.236954583969042,TURN_R
2.24,-0.125380133436237,0.0441079041077146,-0.0147543424673567,9.57074867741953,0.436254111897987,-2.23087610565074,0.070039518344261,0.0006050270928433,-0.0343934774416476,9.51922024761231,0.639424854644365,-2.55396856534427,0.0013599774521359,0.051450943437263,0.0299346447425762,9.80521660703402,0.52836680012823,-0.197837001619128,TURN_R
2.25,-0.103528862035195,0.061630580359605,-0.0225525390111952,9.59783648809496,0.361394337041639,-2.10991028752801,0.0404206030448281,0.0062159862736931,-0.0291425193151823,9.5337624272377,0.662529063701837,-2.46643075775162,-0.0083009783348411,0.0598058226278835,0.0342454524989991,9.73909238197008,0.544661467855161,-0.168332694805508,TURN_R
2.26,-0.112612710101293,0.0631282773046915,-0.027755688926823,9.58523793222688,0.355424579368004,-2.00439299920556,0.0227167142718522,0.0230597348499036,-0.0184807080503521,9.58754156716353,0.63506251039924,-2.27648526205338,-0.0205611337696296,0.062141478765828,0.0396672688893211,9.71855317643266,0.603426764625322,-0.220864277879399,TURN_R
2.27,-0.0966365562841249,0.0637311639270349,-0.0329012850624278,9.48241281461166,0.243091408908296,-2.01923562422378,-0.0191390699576974,0.0238223644681234,-0.0156249720071839,9.53900584062322,0.64412621111315,-2.32236800519176,-0.0327536419110598,0.0631820006528464,0.0509285967790043,9.66444584734559,0.596230700325638,-0.239029903716134,TURN_R
2.28,-0.0686215389008228,0.0584884151789588,-0.0250473616456681,9.49201309805257,0.117062024174696,-1.92408999519872,-0.0581407833785526,0.0268904661307852,-0.0129960317665099,9.48321605643541,0.626057361096508,-2.41422772062961,-0.044082181712127,0.0679376788745518,0.0569804702510804,9.58289470465035,0.640615725479681,-0.20158897774875,TURN_R
2.29,-0.0360108579968952,0.0712220992575151,-0.0217165153600083,9.60362551811885,0.191379749191131,-1.92452333498322,-0.10003666717931,0.027648677393172,-0.0101859234119289,9.46353432844644,0.474679633355086,-2.31557797199315,-0.062503163524809,0.0653866982404152,0.0656364078741196,9.51975475490734,0.604928558221741,-0.12285560970232,TURN_R
2.3,-0.0204875959783361,0.0642674070312662,-0.0287737094591006,9.71549225622568,0.224332167944175,-1.73049193213494,-0.134642165845535,0.0276087825478621,-0.0053816569149471,9.53985192040066,0.277475509614871,-2.37136391248537,-0.071122964742593,0.0537956636766913,0.0773511375925315,9.55460624986776,0.59692138852924,-0.120025601407747,TURN_R
2.31,-0.0220294118744086,0.0616480096227534,-0.0206773281478261,9.75347057128057,0.368535130892496,-1.84179299282395,-0.15621130874199,0.0415125227637557,-0.0111812955800329,9.675391662298,0.11672394073451,-2.43165211624338,-0.087668131582905,0.0350246496133874,0.0882208627584709,9.60373477393456,0.582537753247212,-0.149555028630348,TURN_R
2.32,-0.014011883626279,0.0352058212606877,-0.0190622374861364,9.6435264285422,0.508154970005468,-1.93991089917665,-0.150788065689183,0.0406372739427644,-0.0162670613218565,9.65229328621755,0.330250063915372,-2.4192267168233,-0.101098251355978,0.0100895457973709,0.0935998700981923,9.6208240072067,0.585672091372005,-0.160455579610982,TURN_R
2.33,-0.0652011617651212,0.0160660081115594,-0.0149621128973886,9.62691120668996,0.709691128683812,-1.97166637195113,-0.128947930572542,0.0512598453462314,-0.0176738931982167,9.61687946562019,0.460422273312833,-2.43141552483708,-0.119161482504936,-0.0154433385488482,0.0930784973149801,9.63998714609223,0.672118419424449,-0.186779746509529,TURN_R
2.34,-0.11480434091589,-0.0083572539978158,-0.0109143620285532,9.56980373466529,0.730476439009597,-2.01295591670572,-0.123724225436462,0.0539020753114765,-0.0244021717936419,9.52744875808943,0.406328995934558,-2.49195675283914,-0.130499877660269,-0.0495772625045401,0.0907508821151978,9.63911407356625,0.754952026975276,-0.243466286376427,TURN_R
2.35,-0.159723092472416,-0.0128570008949827,-0.0053442074783604,9.52530758299264,0.638888379040347,-2.16254318448422,-0.149001625945244,0.0575229826344261,-0.032168749477384,9.51742149965989,0.0517165204707411,-2.31087833093094,-0.13605291028399,-0.085170625301826,0.0876537746811625,9.63810247357531,0.904870780712697,-0.333577994347982,TURN_R
2.36,-0.188575998261478,-0.012760712699307,0.0049631956072664,9.4527422100756,0.587546062560147,-2.25762589464109,-0.172108559208057,0.0216871533475434,-0.0429717100835529,9.50598810008976,-0.228636209182325,-2.36652651706691,-0.141925664722827,-0.102170253209643,0.0775260491694486,9.65610762658965,1.01759830576292,-0.391591175428236,TURN_R
2.37,-0.211891774186548,-0.009407840635288,0.0010006593927135,9.38575256526583,0.574241170066565,-2.20286408584691,-0.167839692411466,0.0124443800542134,-0.0390716115481069,9.46469228861633,0.137739397139999,-2.73352557491624,-0.154233208856279,-0.125899294459919,0.0660154222186934,9.70716113169637,1.08828042043153,-0.448191195674587,TURN_R
2.38,-0.224629747238644,-0.0167961877198603,-0.0076607024795412,9.35671329322476,0.578236851644446,-2.24924073517945,-0.122114627859054,0.0108309764212372,-0.0537617942530892,9.41903836664713,0.443144040137011,-2.83413136497794,-0.186728664592985,-0.141603979750468,0.0506069964289917,9.76711483975248,1.12178634238808,-0.572532406281734,TURN_R
2.39,-0.236505627150056,-0.0209184070306435,-0.0143930346959208,9.38402150392769,0.481544846916482,-2.16185637615779,-0.0912775555173407,0.0192990940517166,-0.060884449493311,9.44368017864492,0.379443225347803,-2.81959184188859,-0.22698947935693,-0.140831414460974,0.0307097718261415,9.80604550881301,1.15108307184073,-0.552324427032106,TURN_R
2.4,-0.235627248066907,-0.0216833266647032,-0.0201767751956678,9.42693865687898,0.291540301882319,-2.10867876762537,-0.0767141390006055,0.0307534155156311,-0.0641997127955497,9.52680878800951,0.16959126048797,-2.66500502691438,-0.272427977444747,-0.115811545949479,0.0242393573435514,9.8552722505124,1.11827615367418,-0.573031381641042,TURN_R
2.41,-0.241640771977616,-0.0464672906514164,-0.0134442390549576,9.50064837952345,0.144405741123192,-2.18037939275539,-0.088404022397135,0.0243521204582234,-0.0588461322711407,9.49461149845636,0.279015857273056,-2.53785838216595,-0.321443859751144,-0.0902974957151413,0.0183918143718887,9.87423117343983,1.01237551883446,-0.516693092459698,TURN_R
2.42,-0.229608143938859,-0.0524418165034425,-0.0003374044837309,9.50207423685133,0.212730580953993,-2.30290507590525,-0.0911888902398889,0.0330994015753294,-0.0470872568062624,9.54602202855356,0.635519453922145,-2.52770370621954,-0.368060672230102,-0.0569546254799421,0.021540476169712,9.87540383210467,0.986942830349243,-0.496964942975342,TURN_R
2.43,-0.238287422079645,-0.0512548289764818,0.0026228739621198,9.48032956992413,0.315529361484257,-2.32151670619296,-0.129858435401916,0.0689304128927813,-0.0298267654682583,9.53755806734657,0.909626929134828,-2.37685078436889,-0.406057092327494,-0.0369840439316524,0.022347638868236,9.84755896278362,0.995924794481251,-0.435262255292992,TURN_R
2.44,-0.273561105284205,-0.0360666174370122,0.0000276929859855,9.3936623022107,0.108951531374383,-2.35939429863117,-0.129858435401916,0.0689304128927813,-0.0298267654682583,9.53755806734657,0.909626929134828,-2.37685078436889,-0.432657788633642,-0.025122714120695,0.0271069916160987,9.85674320709648,1.01929235264652,-0.357338427091755,TURN_R
2.45,-0.283725135984125,-0.0297142257077735,0.0052255255749338,9.3515782580469,0.125933362138202,-2.52945048834592,-0.224987383224373,0.0964170636936977,-0.0095349701112984,9.61184621002499,0.971945420331931,-2.3156666187902,-0.448153061538581,-0.0076287065430237,0.0202295456194796,9.87082277580583,1.01417923383234,-0.385771668239862,TURN_R
2.46,-0.261366056011768,-0.0382586845843262,0.0015282766792544,9.43786811192997,0.0536621013550852,-2.57332625097082,-0.294032225863109,0.112272308247396,0.0082413990057414,9.60811115186166,0.806777512856037,-2.1291813908215,-0.467059110668807,-0.0040143427416678,0.0279775576380423,9.87374904098345,0.962257129276383,-0.335560222178094,TURN_R
2.47,-0.278761972957498,-0.0497214244179546,0.0013752073341459,9.34603627593612,-0.0487684431323721,-2.43048483633676,-0.376047701615072,0.113825271956685,0.0312520217259257,9.65141307897577,0.636686858968881,-2.21220818983742,-0.502136385375391,-0.0102126044371182,0.0320923889538771,9.89318598139579,0.921546329164818,-0.298993364128263,TURN_R
2.48,-0.25037128729366,-0.0751277677911368,-0.001079745706897,9.32416501987874,0.141165738727827,-2.53945848492526,-0.41829271733517,0.143074632834678,0.0409125428617691,9.75652093113141,0.680761875471626,-2.1200502765697,-0.532111451932385,-0.0055484640722354,0.0311139218847507,9.94432445548484,0.862861834556643,-0.28438808432004,TURN_R
2.49,-0.207492315613462,-0.0887331575881395,0.0049829214058809,9.30747535267225,0.430591972778075,-2.63981824359264,-0.420456422348157,0.185563911974232,0.0600194001750467,9.73254816984514,0.851379925140157,-2.23945013866362,-0.569493012968204,-0.0016962397223429,0.0266342171704606,9.96364991903349,0.889865890957007,-0.274926857773927,TURN_R
2.5,-0.199436591871121,-0.0834810645532509,0.0024788220420822,9.28651221402703,0.58982373943155,-2.50560040010864,-0.479846220467747,0.241869726221,0.0772052125346556,9.75135381333295,0.881819639007373,-2.44443258499012,-0.609342225648145,0.0076231502849983,0.0206612720803647,9.93605112947694,0.96441886250403,-0.233276503921356,TURN_R
2.51,-0.190273932511479,-0.0711396167233815,-0.0080310384576803,9.33735605082917,0.608387352422843,-2.73805912486325,-0.521949985952061,0.281008247728152,0.0946163018890502,9.59288931037142,0.995662529833442,-2.35137953601225,-0.653878854420168,0.0091210733984846,0.0182724655392056,9.83545698687863,0.996186170928308,-0.369147451876433,TURN_R
2.52,-0.134556977301773,-0.0654716418093885,-0.0132553677353877,9.24978209916993,0.479231454456809,-2.60045938635027,-0.537413018504682,0.289199845106144,0.101305916036205,9.51940148871392,0.939118002250211,-2.20160714534192,-0.699647509126437,0.0148089377102516,0.0092513461083547,9.75051345926911,1.05605605240804,-0.36679378223472,TURN_R
2.53,-0.11030199017272,-0.0795329999367525,-0.0117100530679712,9.35515766298515,0.27922625332995,-2.41806809080496,-0.596338792526812,0.358642263003391,0.114853453351347,9.81715976838523,0.824695199144748,-2.278505057388,-0.729075671656495,0.017059520235284,0.0118774267803786,9.73418373027942,1.04499282289598,-0.344863255604049,TURN_R
2.54,-0.0801335866433443,-0.0329891444944261,-0.0141937542170021,9.3544562531916,0.166343189273392,-2.68289582998277,-0.644547034468126,0.41456037577671,0.142856116819728,9.64780755744167,1.05103524197082,-2.37825308355373,-0.769860431295966,0.0309603434220061,0.0163499224252553,9.7570046440672,0.94106960393076,-0.410382785600154,TURN_R
2.55,-0.007982211113829,-0.012930656423702,-0.0330375529842985,9.38534830433111,-0.275578465218123,-2.49022007823286,-0.667427864151061,0.417495836032713,0.157213624972736,9.66401605872216,1.50816453513282,-2.55071471798512,-0.803820394084872,0.0368202656124616,0.0201608098439938,9.89322642217013,0.895086551504401,-0.411649999494657,TURN_R
2.56,0.0059032898454633,-0.0245240134398817,-0.0166826472443618,9.42136662883859,-0.550304282855425,-2.42754287210388,-0.666210041105603,0.447580744071278,0.164692440999339,9.74856312442922,1.59183175067655,-2.54829579745555,-0.842304357085387,0.0520963878728508,0.0374393592962826,10.057419614764,0.843873716685986,-0.475230530912749,TURN_R
2.57,0.0445499458951793,0.001179772567107,-0.0202725762306022,9.54743066652251,-0.244312274211768,-2.85370806802012,-0.711350549361897,0.471856876282838,0.180723969457438,9.82830268413724,1.68495214118452,-2.50858921989601,-0.887747001213674,0.0775790275876764,0.0579109272208408,10.18524953465,0.827634552937494,-0.404236291061609,TURN_R
2.58,0.0751760446674236,-0.0002550225017838,-0.0193435520685981,9.47520289435823,0.300015150595632,-2.71227312304069,-0.834071014801846,0.522635065495402,0.208027674565482,9.75338111941588,1.84433616529169,-2.73205478912165,-0.931033524778923,0.117613220505518,0.0836373303081568,10.2446530198584,0.810435555309114,-0.322365111522889,TURN_R
2.59,0.0526069438346038,0.0084046799395513,-0.0189964144658189,9.46448587329819,0.752515982559898,-2.93370517518597,-0.919711356545601,0.51114035994447,0.223416394345312,9.35883909784878,2.17113977203554,-2.67688902185706,-0.985007734916368,0.148246012702536,0.105492246085065,10.1900458951861,0.879088583227878,-0.196703982062775,TURN_R
2.6,0.0301852299426865,-0.0366333887901669,-0.0112200155312308,9.35060098604013,1.37576789652739,-3.0781131376709,-0.972351489412961,0.454897788026994,0.213979378738632,9.17465201129206,1.92605145617104,-2.94691236354442,-1.04271705284295,0.160357472271555,0.112556531590657,10.1489797995452,0.996173568546188,-0.289770612657446,TURN_R
2.61,-0.0392671466940147,-0.021196655758187,-0.0002616310225525,9.34462472101072,1.13148436100556,-3.13129379861642,-0.997293537173545,0.389820651919508,0.20933225452317,9.35134784594053,1.1237127212259,-3.00024335001293,-1.07992731651535,0.182893621307799,0.120928593620712,10.0884635313356,0.946572002668249,-0.345488081262633,TURN_R
2.62,-0.170017758047898,-0.0525243669764252,0.0204108313803553,9.42078908155934,1.08613682187158,-2.65315696818117,-0.987077758674656,0.338024137590544,0.20477770248525,9.66696298416274,0.717096187280627,-2.94674268600321,-1.13197213780239,0.222583414629784,0.114668753806921,10.1063115969892,0.881294479398533,-0.306644082074235,TURN_R
2.63,-0.225739343034899,-0.0724962384296769,0.0636466233106509,9.48468680967594,1.53107810960156,-2.88679672437783,-0.93852071422297,0.301604542942051,0.20349753800254,9.84915975510247,0.705177947866479,-2.90403622176522,-1.19290880004741,0.261631571443006,0.113447325009033,10.1987297415181,0.701506426135953,-0.344291560509692,TURN_R
2.64,-0.324069400872086,-0.0850838188450666,0.0956621705400739,9.65100882512158,1.78569762467351,-2.68209628284469,-0.83311858710179,0.289797100880981,0.198463771084464,9.9453803329022,0.835977737744641,-2.5723279266374,-1.27116678680415,0.311490990979062,0.115358784205559,10.2067878321107,0.563355835264342,-0.191018418181698,TURN_R
2.65,-0.428104244527614,-0.0709944956603978,0.109192004537772,9.71952883003793,1.86895736185207,-2.28511326439646,-0.704289873901003,0.296215325694959,0.191279918025137,10.0034337003708,0.982362014997901,-2.19831552580781,-1.35787012743589,0.328242352875272,0.117044770450244,10.0921877594946,0.369390889246244,-0.0184560121858773,TURN_R
2.66,-0.5452668648651,-0.0637900003295448,0.108784794965627,9.47752953655672,1.6133624227932,-2.21227763244964,-0.619067314614661,0.311706604334559,0.188807230594546,9.9593858026836,1.32486454159307,-1.99900979725154,-1.43494823778896,0.325733645786444,0.116371094798243,9.95107109073072,0.307533653475915,0.0091428596025433,TURN_R
2.67,-0.686050245686521,-0.0513071068905047,0.125822775713396,9.48664149014828,1.65677643943107,-2.30256683754376,-0.591080414274902,0.345386072731888,0.167084639412948,9.78257071130694,1.89888247695186,-2.00211523610914,-1.48365763204808,0.334495910528972,0.0953094852327962,9.75922371851229,0.335191443831958,0.01546835247625,TURN_R
2.68,-0.786345265449954,-0.0387390203783045,0.14946723139737,9.63765754891415,1.69959915538697,-2.2072053058791,-0.609993578535299,0.395369720586206,0.142437828998782,9.54059530012589,2.82948752090491,-2.12380199949161,-1.50596635521146,0.315767243997304,0.0715260150869564,9.60182727589679,0.364530047207557,0.0182407149545008,TURN_R
2.69,-0.905057137606928,-0.0327686815769932,0.164290410023081,9.54651527539789,1.35777474931183,-2.03726351802282,-0.698151513476511,0.457226611542195,0.105662708217488,9.2399677915627,3.90146469347154,-1.98243693040969,-1.5101229669116,0.26369224262883,0.0546157993273348,9.44415504751667,0.315368525026311,-0.161593043355546,TURN_R
2.7,-1.01353358388914,-0.0190363792389008,0.161558642765981,9.41790057153239,0.990729184683763,-1.77109335863719,-0.864208056686895,0.519191005861756,0.0696342236284552,8.99122543261997,4.85585846348468,-1.83527105030037,-1.50177760249341,0.214294116354043,0.0263700628767515,9.22096416626559,0.258122889489872,-0.304968232433701,TURN_R
2.71,-1.0650085354437,-0.0290378094746467,0.168169600720825,9.42559403737184,0.7528695990823,-1.95330935396735,-1.11364524441043,0.575324969342134,0.0281603151525846,8.81345479128372,5.52207226760464,-1.71094029233692,-1.50645452065533,0.183195575286995,0.0176837329391996,9.15995953379491,0.159817235400163,-0.362290435367904,TURN_R
2.72,-1.051991558349,-0.0271216208454562,0.181329296340781,9.54945692992332,0.860072985376246,-1.71923374733643,-1.42482744055622,0.634190170654819,-0.001168206813907,8.89021700198931,5.77795593030222,-1.57807840154521,-1.50762543182337,0.134966187247478,0.0087135994855857,9.20632973102268,0.0831002635543766,-0.391098751045305,TURN_R
2.73,-1.0735227924293,-0.0267261971557444,0.199014706949428,9.78033985190263,1.25984580246088,-1.61365307488553,-1.78373258520774,0.636849895686806,-0.0201893894922665,9.0776415091557,5.54992083652495,-1.54075071092607,-1.49609182896307,0.0933250741933171,0.0131901580761723,9.37719441696844,0.0097653282208623,-0.384329980174778,TURN_R
2.74,-1.09352452904628,-0.015118889443643,0.20337714696567,9.79930835638843,1.56290311247115,-1.59296523135422,-2.146765850439,0.592838909578304,-0.0198629004748955,9.34600154812015,4.9065355051551,-1.64337571604808,-1.48614760612964,0.0730470360958762,0.0335087873734535,9.65334179429668,-0.088879060749592,-0.353705936175415,TURN_R
2.75,-1.11152465835049,-0.0085780651828629,0.195513963851334,9.72742510965246,1.24823755075873,-1.70990094147581,-2.47595849410315,0.517771145452504,0.0081557144023724,9.58949150381384,3.95833290849971,-1.85364142199295,-1.47262908020179,0.0708930826373705,0.0614430365941534,9.85200172884851,-0.134355081890553,-0.452687346876789,TURN_R
2.76,-1.09866788418045,-0.0093349248956864,0.180813170156815,9.53978758310086,1.04938639851742,-1.74490745086204,-2.75770395415279,0.42782318674214,0.0587729768452504,9.93371864108335,3.13479643385127,-2.08912693475737,-1.45660842824002,0.0750460519365069,0.0912644106236254,9.95983003475073,-0.214019294552036,-0.369589665759074,TURN_R
2.77,-1.03835485931536,-0.0392223302300342,0.190694823829841,9.35216812309192,0.803965522460623,-1.89833186671134,-2.98457024362071,0.339530938188978,0.121835517518496,9.9078560866917,2.22657887804638,-2.51498531974862,-1.45594112684165,0.0822128080094205,0.117466090654517,9.89495800345156,-0.166495531563599,-0.327963877168046,TURN_R
2.78,-1.00211888251969,-0.0739910526436149,0.213214710617803,9.33120095021099,0.764968685515465,-1.95324956288365,-3.14903735654607,0.26052564401829,0.151962751298174,9.73466844469066,1.53081817420579,-2.79588628077954,-1.47516993918726,0.0784124279462764,0.137907484285273,9.72494879457193,-0.192398208060795,-0.274061478486261,TURN_R
2.79,-1.00656349890888,-0.113763346449505,0.245536595918969,9.53737423392071,1.23059352936195,-2.03564694078904,-3.25070393175288,0.208336394371263,0.163402974672365,9.59493552318461,1.25152527159516,-2.97640108774249,-1.49621427632282,0.0573781830961338,0.141137113835602,9.59124411747448,-0.0514814212866281,-0.263700024152189,TURN_R
2.8,-1.00270230331089,-0.122836926180653,0.256776990544528,9.55820244970469,1.25466384660335,-2.02954208603575,-3.27556656896171,0.182121177271068,0.158648997540911,9.48826432193859,0.87723568850564,-3.10267698148203,-1.51662606497637,0.0289477636930311,0.138453051617361,9.53199516944126,0.020848206731584,-0.389315833265697,TURN_R
2.81,-1.02481552370747,-0.113675334344124,0.26196496994838,9.50039422445633,1.04505904627611,-1.97659555275295,-3.2271419854528,0.154527770014812,0.148198242034345,9.57424318398775,0.513841506855179,-3.04363219836321,-1.54403478886526,0.0031277702553581,0.12736905851052,9.57803309049101,0.0702131926927499,-0.488710603494659,TURN_R
2.82,-1.05428124384031,-0.11387923157356,0.282135883107598,9.59050844766918,1.17794820096225,-2.12610340403399,-3.13293712020095,0.155853530038612,0.13676809369937,9.6411526490356,0.116089655438864,-2.91183211806108,-1.56793252906509,-0.0033378310087874,0.112633385803416,9.60469995552328,0.0676428916923796,-0.593552003585574,TURN_R
2.83,-1.03731279991384,-0.108648739822843,0.298763644780549,9.56928313417512,0.946095086793202,-2.31873643918872,-3.00764370617381,0.185555978932415,0.120818174114874,9.63662220184785,-0.242429322662352,-2.78388684846746,-1.59923852408524,-0.0134687412593576,0.0922423815943643,9.66952816950682,0.0506720078130337,-0.645058319629469,TURN_R
2.84,-1.01692489430206,-0.121934660255859,0.308686176494483,9.39858367356615,0.769710729496344,-2.35342194822284,-2.88670370953404,0.203538611423343,0.105426339354153,9.58777304266423,-0.440532773981989,-2.71861893875212,-1.62463375158967,-0.0155255703028297,0.06320209072471,9.72578256476088,-0.0558695898168649,-0.771524292420997,TURN_R
2.85,-1.01794565712122,-0.152299670944164,0.324779619548757,9.3557423934458,0.999687904290727,-2.37990190040934,-2.75697750570405,0.158769267164053,0.0696703206822588,9.41641255654302,-0.563024510540591,-2.70679341422139,-1.64133970337669,-0.0134192472977674,0.0375836076488857,9.77085106150394,-0.118973989724421,-0.834366186563161,TURN_R
2.86,-1.02818605939358,-0.164798107439915,0.340614815029474,9.46257194416352,1.20070140228628,-2.48299804655999,-2.60672196134473,0.109337506331469,0.0298735119698459,9.22748664328741,-0.38978438817351,-2.79758436021398,-1.66036289357281,0.0031181569992087,0.0137287280887003,9.82715788531801,-0.274652578135657,-0.722507410334587,TURN_R
2.87,-1.04115898155271,-0.149448954171809,0.346122882908503,9.53603489833782,1.28877018272289,-2.64351446444805,-2.41705822956121,0.103377230783669,0.0115438407662036,9.10564484748683,-0.0523299592406016,-2.82565815898412,-1.68337646328477,0.0133503253863111,-0.0091472215957289,9.85095350588868,-0.458587849919098,-0.580280810778266,TURN_R
2.88,-1.0639353338691,-0.135967662406649,0.351707267561826,9.50728361664395,1.15401484342928,-2.66069113292017,-2.25969808650182,0.100203911988224,0.0154730960308708,8.89583759524369,0.207887548102341,-2.79229001107386,-1.70477567412637,0.0276663270878064,-0.0327016165990407,9.84775645780957,-0.654107450333536,-0.564491990862799,TURN_R
2.89,-1.09393379406334,-0.139892346394036,0.365283033748157,9.35951075592046,0.877624251829128,-2.56099117295108,-2.15292678900795,0.0578792611915039,0.0160627170953106,8.74569440409464,0.377231123076001,-2.9068757463028,-1.71277727554732,0.0350391107627103,-0.0485434148440859,9.80889165698967,-0.784655385233041,-0.589586174823881,TURN_R
2.9,-1.10860374122111,-0.181486144677421,0.39154120599082,9.27713000750872,0.940844413490582,-2.89803897635478,-2.09302633017568,0.0183903803287499,0.0166803116602291,8.73852279422763,0.350141038566064,-2.88654367785375,-1.71458211908873,0.0518826834128569,-0.0623428641962631,9.81872480978643,-0.882359095093911,-0.453558653720036,TURN_R
2.91,-1.09199788997074,-0.202565944709466,0.413666440877348,9.27828562129021,0.886386776949442,-2.97856973309065,-2.05866276219748,0.0002188616905402,0.0268766181080025,8.69874080701946,0.453281882226646,-2.78060307273997,-1.70390238043362,0.0541255440497441,-0.0759022517186628,9.76965341293897,-0.913741436456016,-0.426544999277518,TURN_R
2.92,-1.09523572193657,-0.236506419078709,0.442601955568461,9.36277688497414,1.12587116284417,-2.97777751203754,-2.05765139650964,-0.0391096407153746,0.0450986052226029,8.65157818618723,0.408778457461214,-2.53563842353904,-1.68905731301178,0.058345170159325,-0.0881032129743607,9.74162602036841,-0.989223090798765,-0.345890815673369,TURN_R
2.93,-1.08922135903005,-0.25426531537003,0.459397360798647,9.26305664201063,1.21686462219122,-3.12014518778588,-2.1225648502944,-0.115373578636633,0.064309927804556,8.69464494314657,0.256656991639822,-2.28754376304249,-1.66943839058505,0.0381275753377053,-0.102403758568534,9.67376722367441,-1.00725773738983,-0.347619846279192,TURN_R
2.94,-1.11378816144861,-0.295581660748101,0.478097982373311,9.26028288854918,1.06701684003765,-3.06019651611334,-2.24315062517869,-0.298969789654602,0.109790823316804,9.08352678173507,-0.171114068640467,-2.31143201848821,-1.64462538387235,0.0275292668198789,-0.102570711051148,9.58871817230974,-1.04185712734598,-0.348129562477657,TURN_R
2.95,-1.14062795946866,-0.334407109455939,0.504487740956876,9.29795854589932,0.881156708692339,-2.8114367089488,-2.17802223728779,-0.237364599918877,0.22267277380081,9.16367507346344,0.371142064018504,-2.5600898240646,-1.62422190445096,0.0296502938386688,-0.114388329023666,9.60143059279215,-1.0451596961845,-0.21350049362389,TURN_R
2.96,-1.13340391326412,-0.360219017312196,0.545604875270953,9.45587787252329,1.15166508873112,-2.77427247031076,-2.19464146536352,-0.133430877621849,0.338964652501485,8.62605366554627,0.546511731342644,-2.84523950035851,-1.6102780284633,0.0277623404748913,-0.122212586220019,9.63714182965087,-1.03048630247586,-0.230225671777555,TURN_R
2.97,-1.13567089457212,-0.324501934974079,0.58095794013649,9.75157608328054,1.53200515113581,-2.72011067140125,-2.28035494836419,-0.1803333565196,0.432648191098033,8.33343706843383,0.10062000993022,-3.17738315313136,-1.59152149392914,0.029569064494363,-0.133569834304142,9.71500659419869,-1.04234987850168,-0.149687414300292,TURN_R
2.98,-1.16539832848041,-0.264595491800662,0.582128435897467,9.71260923445791,1.42483907136865,-2.73955236560099,-2.28035494836419,-0.1803333565196,0.432648191098033,8.33343706843383,0.10062000993022,-3.17738315313136,-1.60116426154725,0.0331595183102403,-0.135125655894329,9.75858996109876,-1.09058196871539,-0.0649061005239694,TURN_R
2.99,-1.20174589726703,-0.196204781439476,0.570453344208507,9.61039558338554,0.97346215760099,-2.8419416805303,-2.36398490317151,-0.250536570626902,0.516068834557316,8.54843911540477,-0.704577671479263,-3.26232873022674,-1.62918748402996,0.0490074229733995,-0.136024539950513,9.80028082359894,-1.10791319052405,-0.0067929889240442,TURN_R
3,-1.25278092685331,-0.171246913464944,0.579122918466729,9.51924992274063,1.25445336942859,-2.95322114508261,-2.42042420581251,-0.27168934461913,0.576437065046631,8.78857408552222,-1.44269610410753,-3.09462522183893,-1.6547957852208,0.059247709606185,-0.132248017914387,9.8696770011676,-0.968853903968783,0.192929425285678,TURN_R
3.01,-1.23707385171091,-0.157726163134432,0.575202391120459,9.23996620377727,0.83615037680946,-3.02392251985784,-2.38169987089879,-0.42985267348658,0.593491165115625,8.72197258632156,-1.92572541883535,-2.91136151384553,-1.67925837582576,0.041885455314062,-0.135589847981582,9.77975102720585,-0.735071951558249,0.138721054309795,TURN_R
3.02,-1.26867360733489,-0.142830310163201,0.58799692421889,9.16977631353204,0.710013170811681,-3.13731419856672,-2.20676797030898,-0.647980704729253,0.569764682777342,8.84582283985616,-1.97119723896992,-2.59067777876505,-1.71084188183091,0.0448320658212734,-0.143723666653164,9.70432891935208,-0.536263699318688,0.285534044663395,TURN_R
3.03,-1.23867723124402,-0.142311927196828,0.613700437551538,9.22969079997389,1.10432761058793,-3.1085158072025,-1.98448385884109,-0.7838758381197,0.527874021439547,8.983050639452,-2.0124915835044,-2.20238084695696,-1.74474651465826,0.0322939825977256,-0.164131178203658,9.69011582437016,-0.372523051978424,0.334669983180908,TURN_R
3.04,-1.23032856552832,-0.132766724639886,0.639412865024972,9.18573240846984,0.973429496069374,-2.88190094660256,-1.78297860616184,-0.859166343025041,0.512064210777873,9.09378677308741,-2.42861753551089,-1.68230772300115,-1.7593019928652,0.0212491010284019,-0.178887844403672,9.63479675262452,-0.308479635119168,0.288494191013219,TURN_R
3.05,-1.26688412191067,-0.134768635930737,0.660050958849726,9.36511914464764,1.02613708668164,-2.39472361854576,-1.593973318184,-0.923366706438686,0.508956007063683,9.31685165718606,-3.25727310057698,-1.5861708728306,-1.76931096515012,0.0107825205131105,-0.197336388001854,9.58389560136841,-0.31353782095572,0.287423928954448,TURN_R
3.06,-1.28781345451493,-0.0861328303401942,0.670633061452033,9.52663271128432,1.09926236721703,-2.14084247515589,-1.33577983550378,-0.898576897406416,0.520547040999855,9.79634040698775,-4.05946962523685,-1.64381082807473,-1.77662053918858,-0.0019874668947593,-0.209568383590217,9.611767774705,-0.426094539215298,0.147151377080094,TURN_R
3.07,-1.27411318569504,-0.0242862220920113,0.682124481807008,9.70578145217301,1.1977854479341,-1.97606184558995,-1.00005374662131,-0.832315089444411,0.518293435910777,10.3036416747229,-4.38477480851457,-1.59442031807532,-1.76073109163505,-0.0147737246930482,-0.220720839559253,9.61187601374868,-0.574879176335888,0.0732352263904491,TURN_R
3.08,-1.27081369333198,0.0709685264457317,0.679493842954683,9.85481370743353,0.968924732152542,-1.89572738593144,-0.614176420777691,-0.710317680116363,0.507303298997632,11.0692995481016,-3.88060237756941,-1.34648910204557,-1.7336827337612,-0.0183751067246186,-0.221351598766249,9.57064345166271,-0.753267912837244,0.115791421980376,TURN_R
3.09,-1.30002833822235,0.167855328573671,0.680769916033357,9.85474803424413,0.867050908276263,-1.70259317913038,-0.23771570626534,-0.431723144613171,0.473310994304666,11.891025590763,-2.66408234323058,-0.586761742473515,-1.71201939634703,-0.0290331393377963,-0.223917766164183,9.55313570374925,-0.860176378967446,0.258176832977876,TURN_R
3.1,-1.31573387316017,0.204259296576451,0.677860778773645,10.0079396216604,0.785516362637267,-1.74565415628885,0.0893269668363188,-0.170598983317025,0.401626798261771,12.2428364481509,-0.842990003997138,0.218936570840685,-1.67879820503843,-0.0549517239860095,-0.22275301907783,9.70489315951425,-0.894265763515354,0.368863991007211,TURN_R
3.11,-1.29423060593023,0.258240694558769,0.67573938933442,10.1802745972296,0.766284344254582,-2.19788772603336,0.297660227557028,-0.0477693088456759,0.340165921980109,12.4510865001703,1.06040548778141,1.31456908819155,-1.62047389536247,-0.10009958888072,-0.203331244398322,9.90281502719128,-0.773386655728542,0.473143598377302,TURN_R
3.12,-1.23013150469416,0.301730964092885,0.645815706849762,10.1615390037365,0.382541787483464,-2.11087794730391,0.405547412828586,-0.0024943552105269,0.35945433539175,12.3762300217008,2.1946154075296,2.25883664158456,-1.57470070727695,-0.131531902251096,-0.160547264109959,10.2450953363318,-0.612927621841597,0.449392585563984,TURN_R
3.13,-1.213616492673,0.304668556964551,0.629971551187612,10.0644892441475,0.510390987097302,-2.09097898690199,0.38159687013345,-0.0367855980438568,0.473764610001994,11.9415406778356,2.29641851771631,3.43536480090602,-1.56186620460476,-0.141311393611557,-0.0984809546586354,10.4883282092871,-0.35152731052799,0.332004632689601,TURN_R
3.14,-1.13694294833409,0.264330243709256,0.615683411200406,9.90372848215518,0.939093628833858,-2.17030468910959,0.102407368591242,-0.113960587031388,0.593471903477977,11.2799935866078,1.85299713656964,3.5410181046359,-1.54945781960139,-0.135254946521957,-0.0343664215042473,10.4876982344249,-0.160997689428529,0.177585138562211,TURN_R
3.15,-1.06848641082757,0.226503599503494,0.619669903955274,9.80349684113347,1.1096777614228,-2.27313890078894,-0.370457347981826,-0.239189961961053,0.668800868275642,10.4302983592607,1.92071231339367,2.62180403328984,-1.53702261425752,-0.125693443242542,0.0120068862001771,10.205571611487,-0.186759796900688,0.0795577089652122,TURN_R
3.16,-1.03732148911823,0.25842477930808,0.648668933700568,9.9389310997387,1.23976705267354,-2.13738157560631,-0.872721182762223,-0.230725723058733,0.717198527698389,9.57105754678015,3.02918210772133,1.70347596688885,-1.53473339742116,-0.115615072115801,0.0199773510541645,9.77684515276925,-0.382255574067098,0.0035428485416916,TURN_R
3.17,-1.06531711342266,0.386327013872106,0.668966971902008,10.0292007224973,1.23772128960485,-2.0297625892767,-1.32807939629148,-0.206216928604051,0.741332108425984,8.36065383534759,4.17104953853985,0.384410788533207,-1.52726931033441,-0.124966578757297,0.0152319552412489,9.37723751835414,-0.595604963129817,0.0668738844558677,TURN_R
3.18,-1.14697702534705,0.518491656854146,0.672216097361805,9.88028315705484,1.16308853053158,-1.85838257776858,-1.58602694459654,-0.229303418210801,0.71730109984428,7.83249856431516,4.10089685519174,-1.08357266609167,-1.52626391736762,-0.13852122226526,-0.0020575977722441,9.00737531824792,-0.832150015996428,0.267492530149016,TURN_R
3.19,-1.26952848817761,0.620819152422386,0.685646675638118,9.66249535638983,1.16450896094157,-1.54050824658218,-1.72291208005204,-0.221912396898864,0.690141707742198,7.65297969042492,2.25301409086508,-2.0910645115044,-1.50995387719146,-0.156126825452712,-0.02486834085104,8.76750099191184,-0.979284844575918,0.399882156426512,TURN_R
3.2,-1.35493064644884,0.684887357204558,0.70597601231123,9.68651496945482,1.31615025465907,-1.24630087364077,-1.91965478597628,-0.276776151478908,0.621569475552667,8.40492989457308,0.045848500836081,-2.65906252489267,-1.47009395451787,-0.189038709717799,-0.0447214256674797,8.68564730263568,-0.951755015902955,0.438966372135127,TURN_R
3.21,-1.4318073496779,0.743045503298145,0.747701391008772,9.95545651440529,1.56024738855536,-0.948324619695564,-1.97383233175936,-0.291099188540635,0.548961985639559,9.0331950549979,-1.2386505970657,-2.74705236437447,-1.38716774867203,-0.235811442871652,-0.0507436790507179,8.72275934001113,-0.674762727254125,0.392326704483366,TURN_R
3.22,-1.538779032311,0.811273378424521,0.82027537962299,10.54089802593,1.71286518408983,-0.73800647902555,-1.72114305058061,-0.361327628269801,0.47579821572826,9.43543218023715,-1.14835513580616,-2.59626457351627,-1.30728380913556,-0.26420919313932,-0.0447233923512954,8.97896594329116,-0.237481873513281,0.383306041498909,TURN_R
3.23,-1.72305568759484,0.945187313508694,0.874321845306884,10.840114484752,1.98938491418594,-0.221264319347624,-1.49819141949436,-0.322397325677303,0.455242620846406,9.67386765123798,-0.361998410745488,-3.24449358593425,-1.26665041143777,-0.276799500664989,-0.0262298741807748,9.33575489423986,0.198813256021022,0.137504737934561,TURN_R
3.24,-1.95075949317556,1.09375782174862,0.860382446297338,11.035105140325,2.12584795429745,0.310757107321323,-1.51508718270977,-0.249365833029034,0.463980395986233,9.8817923280043,-0.542117903734639,-3.07140988832296,-1.25621030359646,-0.282280374348687,-0.0086831450197665,9.67306970093814,0.698487179297111,0.133707713740784,TURN_R
3.25,-2.20977692787999,1.32098201526598,0.743596668873912,10.973449877613,1.81189565892756,0.441921770649035,-1.50985071558517,-0.193654795059876,0.458251467603914,10.1558694414292,-1.11236882176298,-2.39621627702708,-1.26985088568697,-0.307090099206388,0.0177341172598346,9.92316436392424,1.11034156971139,-0.121472309616619,TURN_R
3.26,-2.322244570868,1.50331450053561,0.58206676604021,10.7160491867188,1.47715775291868,0.897871250699514,-1.39728894161873,-0.203293392971757,0.443296320726827,10.1180254649317,-1.43096095746228,-1.79474167704825,-1.27938428515287,-0.315134135273405,0.0527229649069655,10.2083431971173,1.32781093620247,-0.294237293545568,TURN_R
3.27,-2.322244570868,1.50331450053561,0.58206676604021,10.7160491867188,1.47715775291868,0.897871250699514,-1.21438687832997,-0.301479453406094,0.405547497879377,10.0227935528978,-0.609002625709307,-1.9301245787683,-1.29145979342201,-0.293990969593035,0.0804212311976595,10.2602409340719,1.53502930439767,-0.359438734205008,TURN_R
3.28,-2.35807821413845,1.55043501085834,0.477166887207939,10.5100259400575,1.11105071920972,1.26002947188892,-1.06105630822249,-0.175785773149906,0.418413250121739,10.0041696959346,0.130592540597725,-1.84393155953428,-1.32536182135149,-0.261543086463285,0.0981560929364214,10.3348557782164,1.63228469332786,-0.252295305294874,TURN_R
3.29,-2.25102327534178,1.51772323237969,0.337343902965747,10.2825185897301,1.01324564884821,0.570218889041828,-1.10088729092799,-0.0888940870754437,0.384232775503048,10.2586693474196,-0.475479017915154,-1.21799153599772,-1.37051882490913,-0.183518010897273,0.104155687544813,10.3670993417816,1.56066786059693,-0.151581300874117,TURN_R
3.3,-2.00362771669449,1.46688391850604,0.217794591646601,10.3277155571494,0.979695111147619,-1.07372066239918,-1.12332960228918,-0.0291901259102413,0.33673271733578,10.6944275124191,-0.316107182277924,-0.907641067999103,-1.40436706178029,-0.11538966322728,0.101620874646198,10.3238210429295,1.4502210748171,-0.133315297863079,TURN_R
3.31,-1.67450462357226,1.37958205079979,0.11725795781913,10.2784099625601,0.99675417708915,-2.53423183337043,-1.05213916736286,0.125200020737366,0.357840986501636,10.3972898266013,0.0234674489015219,-0.959754927213971,-1.40893398901263,-0.0470234375242189,0.0886411494008459,10.2995834631766,1.37723334013857,-0.0677264753171756,TURN_R
3.32,-1.38324905160344,1.24694674195157,0.0404753465261207,10.3376806539888,0.885882498432278,-3.64600730999339,-1.10662664606761,0.188971980122649,0.368224639787096,10.1523041985598,-0.786030327102804,-0.888683193395296,-1.39835697586828,-0.0113262595520627,0.0563289332291933,10.2869907853801,1.19964170363847,0.056772039530864,TURN_R
3.33,-1.21023207420157,1.10335445713989,-0.0197816142891387,10.4415248277823,0.800291414123879,-4.3305930563051,-1.20221182854545,0.228007579603326,0.36785694389136,10.4368085411812,-1.58616522692604,-1.06388972285241,-1.37946935267551,0.0160144209251247,0.0379380013836974,10.4205764407117,1.01902665155199,0.076192576969202,TURN_R
3.34,-1.20435394595843,1.00422794243887,-0.0937603075903619,10.6094862565156,1.08987628965401,-4.6416068101085,-1.21447355281553,0.232197267372501,0.374109896194437,10.2895016698847,-1.96860562327624,-1.42050690617441,-1.36165401049959,0.0553981160302927,0.0059360412699862,10.5296498363074,0.853159946837232,0.215553188342886,TURN_R
3.35,-1.36027399833594,0.921798649192899,-0.162904695855833,10.5110664270199,1.94588335332298,-4.65257457752301,-1.22898243528858,0.160714322650907,0.371257738091587,9.71721837719871,-2.35193273266652,-2.0886279525908,-1.34598211792846,0.0718296089355666,-0.0202192885824125,10.6222136459154,0.72744768918701,0.209321886750157,TURN_R
3.36,-1.59782051981498,0.797269300442199,-0.223327753131118,10.0437209635314,2.87279627333101,-4.51620738692383,-1.18797236319683,0.0866378778003014,0.350340877467493,9.48529375439101,-2.71074093614825,-2.60236549647778,-1.29872526816374,0.0592684262574578,-0.0406328643696975,10.610848211989,0.657612330867649,0.243714508976028,TURN_R
3.37,-1.88256516460976,0.622726553921551,-0.247279133147276,9.78928844720276,3.76906279568908,-4.57426030168665,-1.11721916903092,0.0252061596165972,0.332762344608742,9.12386477770237,-2.63835132078636,-2.9436803407002,-1.23466335039938,0.0264832289129756,-0.0726215660413567,10.5034107870168,0.588883857239972,0.171274315055247,TURN_R
3.38,-2.12355941658082,0.471500587552602,-0.269557584084397,9.49447435729477,4.23493168753259,-4.98132675822746,-1.05332837956824,-0.0738546646839315,0.305046100113672,9.06809108887446,-2.72514486139276,-2.73429042947501,-1.16454206473126,-0.007589063358322,-0.102628254696844,10.3681149337796,0.559723656013369,0.0027608551526626,TURN_R
3.39,-2.32944463185753,0.338881617556378,-0.292148852153835,9.21559515982411,4.05083661766244,-5.4038468019786,-0.977777884356967,-0.134944411504021,0.275730120755612,9.21906767634884,-2.26701309100302,-2.87051657333947,-1.09067309717362,-0.0209348113614123,-0.137890499829722,10.1237291363332,0.585052210869656,-0.183142103726719,TURN_R
3.4,-2.51737479041858,0.259662107190829,-0.286411108743314,8.83894404902875,3.41375163683932,-5.80294394139561,-0.876133339132313,-0.128541159606968,0.263244643491896,9.30581137338954,-1.66884954436951,-2.20457918885136,-1.02023435411902,-0.0274662554588317,-0.160453600096286,9.9227386667103,0.65438762019437,-0.235308196681253,TURN_R
3.41,-2.68730805380705,0.219500942650867,-0.253722285123456,8.63736223131367,2.18849238572744,-5.93097009020258,-0.8142618879596,-0.11469357132008,0.240217769661221,9.45875765306741,-1.36265747956355,-1.52920048542153,-0.967203626395532,-0.0551639264445444,-0.168004527781981,9.72413977819419,0.807470004995516,-0.381883107913147,TURN_R
3.42,-2.90160189364351,0.228684960812532,-0.160967912468147,8.48611491409027,0.708488134315372,-5.60454339319603,-0.778220815245176,-0.0909471668759194,0.214742619953829,9.71647054258588,-1.20770663587779,-1.15900161344967,-0.930571331350038,-0.0591589534871122,-0.163598594212652,9.54063736655595,0.939707543442917,-0.367842523019952,TURN_R
3.43,-3.14903091763549,0.284729132114166,-0.0497565620242472,8.65476911146737,-0.343135168775951,-5.05303086561159,-0.737733557298305,-0.0625828420740133,0.19474438537856,9.81925331290281,-1.1932724247928,-0.808629958283115,-0.931736262186598,-0.0565798564864664,-0.135074349842383,9.4756735734821,1.0535430347035,-0.201205693094709,TURN_R
3.44,-3.37401502402422,0.340634917014568,0.0295140233324912,8.80615386900548,-0.978534914659956,-4.49544606538576,-0.688244969809186,-0.0204369516962943,0.188353353868102,9.72145630028805,-1.42232656555621,-0.892378500893896,-0.989900198488486,-0.0642473237925818,-0.105443798841747,9.48303855651637,1.09549162733867,-0.267895640041412,TURN_R
3.45,-3.56214264494094,0.36186929855773,0.0615239003486125,8.96519066883286,-1.28234579068372,-3.97045724205206,-0.6309855922761,0.0104825939820064,0.172506871177243,9.77260347076987,-1.80905267597909,-0.738360186133003,-1.02111190326868,-0.0627738072278695,-0.072684729558692,9.50214546069039,1.05274959576858,-0.484520729741775,TURN_R
3.46,-3.74368325400886,0.347035647166923,0.0813496786368329,9.0370985420462,-1.30145843328064,-3.6757251177039,-0.558806396975831,0.055565650873742,0.164505517380643,9.60672302866493,-1.50226238217452,-1.08231247427733,-1.02265999684419,-0.0473453462063907,-0.0521852409865358,9.46272821226627,0.960415509877213,-0.426293646252942,TURN_R
3.47,-3.86858634075487,0.309781802095925,0.0762479810202262,9.04099902183601,-1.57297444729562,-3.47022793401492,-0.470683015481655,0.0673997850506612,0.152096633701896,9.73886116227755,-1.46090115477978,-1.12335499153278,-1.01102305892763,-0.0466778391539379,-0.0480806142752709,9.51262236526917,0.845192051157012,-0.367454808635925,TURN_R
3.48,-3.8930078405575,0.239916953781581,0.050042768544611,8.95017087647622,-2.16418513083584,-3.27247749852962,-0.396808254346413,0.0878304144805354,0.128700411570131,9.77202210162381,-1.3042585667137,-1.24687873297272,-0.978421541222707,-0.0503732710871223,-0.0596167574350133,9.58911877252728,0.673267613852724,-0.265209641890338,TURN_R
3.49,-3.78314558684866,0.128110262117471,0.0243680817434311,8.97849381993729,-2.96363466088054,-2.9614263133381,-0.323304398490354,0.085894794481715,0.118855741382789,9.71902097704794,-1.01875004813073,-1.33191219154288,-0.935653300201246,-0.0523074766031019,-0.0730209819950429,9.61505588007779,0.625826105070901,-0.217998850983789,TURN_R
3.5,-3.55485650049855,0.0292177103104218,0.0006234917199315,9.06826501374334,-3.9115519217553,-2.59725336307449,-0.285601550978253,0.0883887028292571,0.111455309542617,9.65994958099426,-0.631926334844625,-1.30542970391767,-0.907103191136382,-0.0496022889769644,-0.0874912953876991,9.70650340575594,0.60022133961478,-0.196865105475222,TURN_R
3.51,-3.2083318094994,-0.0374034337989024,-0.0134420286807251,9.3147595451352,-4.79070310288867,-2.26420081755032,-0.332570468262272,0.0609315665040589,0.103018244498554,9.54446370404041,-0.577545258118784,-1.31413440839873,-0.887734486337522,-0.0376199980474365,-0.104458098617382,9.83064465700859,0.592217213665831,-0.388296711877504,TURN_R
3.52,-2.77377723639349,-0.0788609673310134,-0.0468163505406233,9.42325420060745,-5.18249593848465,-1.87736033479767,-0.369086640787943,0.0255770502586657,0.0944556724735895,9.50083057350184,-0.462666168708969,-1.19554605078305,-0.846183014758202,-0.004245138873049,-0.118224207201002,9.94025301424354,0.624324752116015,-0.293694431193717,TURN_R
