time,left_angular_velocity_x,left_angular_velocity_y,left_angular_velocity_z,left_linear_acceleration_x,left_linear_acceleration_y,left_linear_acceleration_z,right_angular_velocity_x,right_angular_velocity_y,right_angular_velocity_z,right_linear_acceleration_x,right_linear_acceleration_y,right_linear_acceleration_z,pelvis_angular_velocity_x,pelvis_angular_velocity_y,pelvis_angular_velocity_z,pelvis_linear_acceleration_x,pelvis_linear_acceleration_y,pelvis_linear_acceleration_z,label
0.01,0.0583553385033825,0.0448361230514263,0.0111637935835951,9.59400187851968,0.0314662626133886,-2.14700440152665,0.0409611337555664,0.0419618148044176,0.0344639062817549,9.45236703257971,0.201436260878773,-2.5683698220354,0.0442024885922385,0.0854684679578528,-0.0082702830444076,9.66933707531181,0.44103049706497,-0.47232663027142,TURN_L
0.02,0.06869431980198,0.0400336172750096,0.0116220874198549,9.57225091747581,0.0215918655189786,-2.13772504870144,0.0533875298981244,0.0471778875905574,0.0280435595947206,9.498306683951,0.191608302122947,-2.36652847609614,0.0382828494939316,0.0866649533425562,-0.0186903561816961,9.65525794774685,0.449787517116829,-0.433762628360641,TURN_L
0.03,0.0573347287461411,0.0402451424504614,0.0183897987586362,9.57694780727424,0.0763587973027503,-2.14969529631713,0.0682991589104079,0.0537025872124122,0.0307885976108846,9.45563547417277,0.155521751875246,-2.36790557643931,0.0220637604404914,0.0870935246743216,-0.0196586034271987,9.64109428889529,0.45916225415876,-0.395101070809905,TURN_L
0.04,0.0398655785072163,0.0511033329715291,0.0159514823801704,9.63518296550796,0.0431107880706169,-2.05421728546817,0.0800712957632732,0.0558664017632041,0.0240190123785326,9.51129030404217,0.0878891933372361,-2.3255674024167,0.011466335935523,0.090765493643394,-0.0227381227412524,9.62700552055568,0.414256468213292,-0.420847123617048,TURN_L
0.05,0.0486963764878865,0.0442825254019498,0.024543644639878,9.64364073253844,0.0541460275397256,-1.99737787716758,0.0898506403024308,0.0528023212278002,0.0191663822821178,9.54516784302176,0.11289668475532,-2.41440424068703,0.0122762200272734,0.0890429235949581,-0.0246081839547003,9.68464759202064,0.403667967129827,-0.401235495684968,TURN_L
0.06,0.0446148517530527,0.0417857479520028,0.0263230287395004,9.69853946183918,-0.052859107886291,-1.90492663956915,0.122322648955117,0.0518559328462594,0.0170837090982472,9.57002306110643,0.302926407383586,-2.32246208753933,0.0087300712637353,0.086621082309505,-0.0210847334114433,9.76106248473826,0.315661574784154,-0.35321012080431,TURN_L
0.07,0.0264476476415255,0.0415080217149504,0.0353810555257857,9.72277846078274,-0.0647465368032446,-1.92482654252498,0.13698063195718,0.0466795686753782,0.0160991675357657,9.53888050039277,0.33231144236479,-2.26188615029902,0.014006534995322,0.0861790849550717,-0.0169605104572719,9.80904888286081,0.252080748475408,-0.344681775205567,TURN_L
0.08,0.046210272426701,0.0428851143871877,0.0381111504994174,9.64226567381721,-0.0146979962495404,-1.96928595686628,0.133299113962346,0.0439497056643354,0.0206505431323469,9.61723108681624,0.414353237868901,-2.19191334616971,0.0256820736691829,0.0832072119852141,-0.0074362071733064,9.85267149213834,0.284802973540156,-0.362836838660257,TURN_L
0.09,0.0457393687800226,0.0396564416534277,0.0391344948456825,9.52887730479664,0.0950734334763597,-1.84282563668508,0.111755220987594,0.0477204515889999,0.0235344938919174,9.61877438790117,0.463191021331332,-2.17790377242793,0.0455613149367052,0.076114244692613,0.0006259271601211,9.89656342859224,0.289297747262107,-0.413772671170989,TURN_L
0.1,0.0524851215816593,0.0414066573479242,0.0403041287923785,9.55620289283812,0.271843032673112,-1.92558508129167,0.102808734338706,0.0518421284125885,0.0246352941146792,9.57692969345395,0.520536735561819,-2.08748712817115,0.0599955148705468,0.0744751516086134,0.0034256310634202,9.84937912642582,0.326956881905838,-0.439068698606013,TURN_L
0.11,0.0597785773778302,0.0451406283486246,0.0370163407316518,9.60745553103384,0.207007078997636,-1.90117004284981,0.085310772225265,0.0631033887781879,0.0322646483119473,9.55611826777044,0.486518185924573,-2.16245314116247,0.0766390791153176,0.0783064651866712,0.0096653769173741,9.73991298446892,0.318553013090324,-0.463341044356945,TURN_L
0.12,0.0412950327439376,0.0507981438774334,0.0399925739995063,9.68867112010409,0.0279404935501169,-1.90670330604452,0.0669318619024276,0.0685075393933913,0.029139927958554,9.49117586414175,0.371514658872946,-2.27643602570116,0.0763222296910644,0.0718196624354052,0.0107760840335522,9.66325373715684,0.279427612771738,-0.424923709620729,TURN_L
0.13,0.037072797459482,0.0637242674705249,0.0519891819331527,9.70759635228068,-0.0117581237347319,-1.87155908642586,0.0804296871419776,0.070788925679216,0.0351644572468839,9.51300050100489,0.181503421910685,-2.22980316524488,0.0729008004012028,0.0740453759541664,0.0163038048544987,9.63901152689282,0.260307904809998,-0.366454390217035,TURN_L
0.14,0.0524212114899188,0.0691332424206755,0.0522022444433127,9.71471704100641,0.144247737250019,-1.84110303669997,0.105307769052569,0.0654395182076449,0.0347873469140811,9.49184731209491,0.0796741780371211,-2.24127940076758,0.0741644485697085,0.0717591786235862,0.0191960271401593,9.62399853646823,0.202246762392323,-0.293523645860885,TURN_L
0.15,0.0775170221654038,0.0490024923665325,0.0541651734550113,9.66979708863603,0.274816535678463,-1.72909193036861,0.109401926743665,0.0689499224998349,0.036553923265399,9.52693833384848,0.119401699618719,-2.4250913908121,0.0817117772511441,0.0760052914774482,0.0169736816814161,9.60092915448674,0.191838067906698,-0.335202617144386,TURN_L
0.16,0.097177410693495,0.0595859799897681,0.043928307653156,9.67871996342464,0.131136463698405,-1.76781946317739,0.130881598885366,0.0552853343931161,0.0288874206495201,9.55115205379753,0.20547471997764,-2.37769054847879,0.0858862488930091,0.0796765621068482,0.0151478305494522,9.63037658165049,0.201807455875346,-0.356154288556362,TURN_L
0.17,0.0941873970672985,0.0810638666726219,0.0434750123488389,9.69263562238728,0.0490753471168193,-1.69651401442444,0.134167416050668,0.0538114441454083,0.0314185041062568,9.56506236152193,0.341250835716818,-2.4215727740003,0.0993514193947518,0.0751069192200517,0.0178824803210642,9.65986502390132,0.211648867490999,-0.377140702507867,TURN_L
0.18,0.0677252440675954,0.110287433840512,0.0477872013613993,9.70902802809324,0.052008608882674,-1.72593411179233,0.137512672249372,0.0427569521793055,0.0242301390547296,9.47098384456892,0.589978931302103,-2.47163725276095,0.114246433635579,0.0749188839045409,0.0208226482744558,9.74621911890382,0.235864904001036,-0.354577950592828,TURN_L
0.19,0.0327754658494753,0.140439423092354,0.0495051675542806,9.72684871227046,0.0393842929645396,-1.77107616133149,0.148095751674716,0.043471002664023,0.0311682597798136,9.46316418404568,0.73647930275524,-2.51578146561604,0.127319041786177,0.0715193572964699,0.0302162626944997,9.80772507241517,0.242252942422532,-0.280538142422853,TURN_L
0.2,0.0396081161867796,0.148040411587618,0.0506981049323298,9.82306229147817,0.0154897877384271,-1.83316813990832,0.137512324993043,0.0444500009264261,0.0280448914246579,9.46561845289597,0.837615319241661,-2.49376607269387,0.135619488389672,0.0816710141950813,0.0316742126501549,9.85564528343571,0.173386464755016,-0.272074777786864,TURN_L
0.21,0.0409660445714116,0.154481804940363,0.0547752332879074,9.92997238219346,-0.053419140168622,-1.79216537803865,0.0892740325609317,0.0765640511977246,0.0406832575467322,9.42605282392402,1.02327477261764,-2.50537866766559,0.150056168393844,0.0868440071923598,0.0303121006755639,9.88388591791486,0.0266977170881804,-0.251569352561768,TURN_L
0.22,0.034234802738505,0.196400522537594,0.0324313946034771,9.7798109100865,-0.219032633197925,-1.87024867387652,0.0251013129209589,0.076228803186506,0.0572928778858091,9.3066033226452,0.963698400191849,-2.3107897280313,0.178103067688939,0.0886149177353941,0.0172315389652413,9.92402563798633,-0.0861532905065074,-0.352097715903951,TURN_L
0.23,0.03473267763129,0.238119802250812,0.0121624871030536,9.788307442666,-0.704943115309734,-2.04790546540433,-0.0461772139505456,0.0833750903762847,0.0741032153173906,9.26231499260693,0.70681773732589,-2.3225845521207,0.211667151479719,0.0840990295203982,-0.000273101862669,9.97574927648387,-0.249747488313168,-0.313545281575711,TURN_L
0.24,0.0499049506317142,0.272890978861682,0.0003634373545248,9.64421880619365,-0.793941967638162,-2.1164433139095,-0.103417407200458,0.0668894702899606,0.0972829073336999,9.16244931670425,0.396634426702355,-2.34445507054673,0.230663854909812,0.0862025470100865,-0.0218287437923422,10.0493578951656,-0.346637490059096,-0.161942115095041,TURN_L
0.25,0.114290879130566,0.264732931317973,-0.0103817062000196,9.59018832002219,-0.822524742365918,-2.16613646572462,-0.123384399061983,0.0144501579724503,0.0954519625651968,9.24509162968209,-0.0796700825792937,-2.44696709683946,0.249626712741833,0.0814592581168873,-0.0390489602378586,10.1105935900534,-0.453073261432978,-0.111969838891203,TURN_L
0.26,0.194428086564701,0.261301411313234,-0.0163317313073181,9.54843277206865,-0.757852806081742,-2.39187215584289,-0.102865267758983,-0.0023593815454158,0.0926308951999586,9.47576787675019,-0.749321913104655,-2.53684004141853,0.280296887538289,0.0777555385891963,-0.0559737062730238,10.1398929332916,-0.528450491345774,-0.125619450678515,TURN_L
0.27,0.270741442340095,0.242426459252822,-0.0176816848367859,9.52103003459508,-0.534788874367444,-2.56240466473202,-0.0320020865562439,0.0047151278471102,0.0859523182018155,9.5796142628935,-1.15787777062243,-2.78115383404867,0.316578093858819,0.082054757968549,-0.0745080393678267,10.0681380535167,-0.501234340463346,-0.098367711751761,TURN_L
0.28,0.290371733691395,0.218732223476953,-0.0250823896708739,9.51323009484545,-0.258607997991174,-2.68526623389859,0.0940990403645391,0.0239865491412085,0.0696518667497405,9.59201293480114,-1.07834211596236,-2.83807300469678,0.357574319151107,0.0941239945666214,-0.0880866428742987,10.0173817654779,-0.451187454775208,-0.145649043435822,TURN_L
0.29,0.287659542015128,0.224159042976606,-0.0154755862336682,9.5768910098078,-0.115066548051695,-2.91832714123126,0.218294066942756,0.0638854719459132,0.0447546848926524,9.4853319780235,-0.342330351910811,-2.77658228459835,0.405288033396592,0.124483706134142,-0.0945381872130907,10.0045711449052,-0.399454071191785,-0.172215241358521,TURN_L
0.3,0.267263566125751,0.220366193746648,-0.0214720587487485,9.57333937966556,-0.140504527352835,-2.7186060106489,0.292157326495489,0.100798306803251,0.0227873556472493,9.39876865484292,0.295220928040461,-2.53285238474835,0.444343193847806,0.171837589823754,-0.0970019222549616,10.0532741407051,-0.273589212511041,-0.165538947869252,TURN_L
0.31,0.265884252740585,0.214741618860317,-0.0293409809241433,9.69389022423451,-0.404006576066547,-2.6575697923151,0.274864959456228,0.1147782354012,0.0213729199193969,9.26976710640759,0.790774147737185,-2.61272283824068,0.486348096909736,0.199740530043197,-0.089856877855284,10.1769567568137,-0.254700710663774,-0.266165559047084,TURN_L
0.32,0.291583287387296,0.226622616327836,-0.0415120859816841,9.79941437171866,-0.716130375958395,-2.48646840351926,0.122379737584032,0.180688523096048,0.040379224948867,9.53115216236923,0.620316891639681,-2.450719648741,0.53507123555989,0.227927344464554,-0.0946843351128542,10.2256688301076,-0.331095316088629,-0.393958291580238,TURN_L
0.33,0.325705627039565,0.229863723071065,-0.0618796601012677,9.82198584041572,-0.88603321455799,-2.11612750465467,-0.0321298650987782,0.330492422789719,0.090957879819147,9.73207271577137,0.150024681648732,-2.1294819432306,0.5842978219895,0.271012262029516,-0.108111348863715,10.1912251896668,-0.453181588600494,-0.284315261754575,TURN_L
0.34,0.393858588455009,0.245329059069533,-0.0882803320720149,9.90968641426442,-0.932207741122786,-1.87793685018053,-0.0667554038454532,0.191608051311743,0.106957692363235,8.83911643758231,0.164074933969808,-2.53959454249531,0.620670873303072,0.300634958211141,-0.125684710810103,10.2928014618695,-0.668028905889563,-0.20959811272432,TURN_L
0.35,0.486030958453163,0.264916925735702,-0.118514484039038,10.0836187356473,-0.856741545366116,-1.67000248139714,-0.0393089876382803,0.0325975338014969,0.0924655611775044,8.647456799445,0.462828609725087,-2.87838617166977,0.661453198631555,0.330702855160222,-0.148421077517081,10.3944798272972,-0.781853967268617,-0.261672181277046,TURN_L
0.36,0.617257270777747,0.296215142962091,-0.15837745424676,10.1797988920477,-1.05948963268698,-1.63837816907368,-0.0005950257321662,-0.0203509532363714,0.0654334912644434,8.90708579804977,-0.298783076530245,-3.02450865173601,0.703658490995625,0.377411506753147,-0.162096643338385,10.4658146350022,-0.87522122720637,-0.248767631652212,TURN_L
0.37,0.70157083808128,0.336738255209769,-0.191090030223747,10.2105342661239,-1.33785602590431,-1.53314092588052,-0.0664241938685672,-0.0040489495799997,0.0297404443357374,9.34290507834148,-0.293191532712407,-3.5842697263633,0.767119014968409,0.4129640640488,-0.184880027447044,10.4083077887198,-0.878841715294121,-0.144816641950393,TURN_L
0.38,0.766988527366833,0.382695496222771,-0.207055056120396,10.2811001936279,-1.61022743802943,-1.61897820152811,-0.0294641500968211,0.0152510835059046,0.020863550378993,9.17433331181495,0.3765176154493,-3.07743384417947,0.843867983939747,0.411576069876414,-0.199372780149809,10.2901420722466,-0.84305284571553,0.100775331513304,TURN_L
0.39,0.834349337434283,0.426296660018246,-0.226827079691589,10.3384077408784,-2.04748572458397,-1.77633764389663,0.0158420149683219,0.0435236096874468,0.0144788551963469,9.48697116690332,0.678623468604307,-2.42167554595522,0.902995056966653,0.377545644643239,-0.222961959434444,10.221949661401,-0.802660889576275,0.186378725850309,TURN_L
0.4,0.930341633365689,0.454427109323184,-0.236855617965854,10.2086182701623,-2.52891289765167,-1.90222574289216,-0.0255641155013615,0.0321895001206654,-0.0028882493083481,9.66112469600255,0.326054187721346,-1.60699164628363,1.01230072665927,0.322657427717274,-0.242004548700241,10.1477733076287,-0.692891645689473,0.17706562437823,TURN_L
0.41,1.03453706896214,0.462999686179412,-0.237730664751254,10.0271362031506,-2.76357581031902,-1.89245014114046,-0.0847815399636168,0.0198520135819827,-0.0088151459250655,9.9854734199099,-0.119088755896253,-1.94549977135043,1.18674288272413,0.224070354817499,-0.242005750472562,10.00922132607,-0.413694450021428,-0.110076376768393,TURN_L
0.42,1.14297776019014,0.442500986756889,-0.224880901693494,9.83392988131709,-2.68013952995958,-1.96050161308516,-0.0097701218506619,0.0232749226873485,-0.0076530016802445,10.0960778294928,-1.1272407025523,-1.49418923169991,1.37052222803734,0.210696022863137,-0.236600409441813,9.9453511789488,-0.22189900181297,-0.651009512566648,TURN_L
0.43,1.23271241748141,0.40694573595992,-0.197181827592273,9.70942568392696,-2.18413967274994,-2.06906431291396,0.128161282243361,0.0511244088606096,-0.0145539134903413,10.067705734012,-1.72445892975015,-1.8152295628075,1.46448016185684,0.318566498463185,-0.239811965006725,9.78397665368696,-0.0062784882464926,-0.778643906673103,TURN_L
0.44,1.27330423227786,0.387204430876812,-0.169417992513952,9.80384769763329,-1.47792852784362,-2.03355274692951,0.33450185042533,0.0848375341041148,-0.0397025166456745,9.77670085194486,-2.41824391113282,-1.60590816046378,1.52368741538874,0.422197542237268,-0.2194235547359,9.5976293204862,0.313377569960401,-0.644072518592971,TURN_L
0.45,1.27060657786538,0.373730799535241,-0.154987863178892,9.88169535605789,-0.938990787393052,-1.94764050989969,0.553282348966634,0.10705666655883,-0.0731800586267137,9.89196635565101,-2.40609933400198,-1.20954137825089,1.59333813603268,0.437893269534878,-0.207573470407104,9.51704810097824,0.473100785383401,-0.464746582609444,TURN_L
0.46,1.21766266167601,0.376241130207503,-0.145196309903261,9.99266182195058,-0.912750990279167,-1.84800009295484,0.725311305892685,0.117482715351129,-0.0961509735835849,9.79804999246531,-1.94524719602347,-1.28640360736575,1.67906216361206,0.421457433840266,-0.190105164027447,9.44699192584512,0.649732613018624,-0.464837250283951,TURN_L
0.47,1.14553403424174,0.394982086221817,-0.131698206324838,9.97927593369426,-1.31375101776538,-1.87469004682395,0.868477346267483,0.116999680081529,-0.120069475452773,9.6405237011349,-2.01732025532346,-0.978257059881114,1.7378946728219,0.405458006269703,-0.193982172519105,9.50277829262559,0.708321510685708,-0.491574741679355,TURN_L
0.48,1.11089428825971,0.412029811190213,-0.114384801938263,9.9638936606509,-2.06657728307788,-1.93575452383606,0.986326585897768,0.124147771381562,-0.159874787476095,9.65765754631579,-2.03190753291579,-1.04888109915594,1.78866098193263,0.399920339394916,-0.201572493373771,9.40703161389761,0.729008407051699,-0.823267387054071,TURN_L
0.49,1.15745846019093,0.440694241673304,-0.113529040989781,9.66951623861714,-3.08333181061735,-1.83198140619019,1.11113379842385,0.146579706896697,-0.198258370872266,9.7842082179691,-1.69332850219535,-0.869710158170209,1.83990388871539,0.408819493533516,-0.197688108991274,9.18753482965985,0.692543772059525,-0.945113528423348,TURN_L
0.5,1.33827067428836,0.465039406041976,-0.122326403181084,9.36705643733589,-3.85567875209731,-1.77042260064881,1.19082698028303,0.127659078743204,-0.225912416262557,9.96980052509556,-1.4530513231114,-0.558611940634669,1.87552957707571,0.411668091018602,-0.184421695513125,9.02849005279612,0.643235266040174,-1.02415410057034,TURN_L
0.51,1.61927070872428,0.47010845565113,-0.122430425942155,9.29837680470377,-4.32553621101988,-1.74347318600954,1.23806626544237,0.157227110685922,-0.221885959507936,10.0586795979636,-1.10288197897706,-0.685578004349722,1.9062926562177,0.392383443401608,-0.166631813491839,9.0094010067565,0.601937325128738,-0.946717038045512,TURN_L
0.52,1.94916262205417,0.476413053131764,-0.126165788943136,9.49061811457812,-4.59962283200199,-1.77593083636645,1.26205251699954,0.149997792126074,-0.213400282413818,9.59133998664667,-0.930234931174893,-0.926874099532953,1.91447614943382,0.340424524137994,-0.146057635909529,9.14111889326142,0.581927636513448,-1.06009103837658,TURN_L
0.53,2.30404153885342,0.489749860844446,-0.127385729302084,9.47187912884325,-4.63294481571011,-1.9632081009667,1.29846194775948,0.0965404265668448,-0.244186158659312,9.65634662384828,-1.22744364174288,-1.17065745319347,1.94425839027736,0.291433919728786,-0.130693747881202,9.27094891793973,0.553566217581419,-1.20075052293241,TURN_L
0.54,2.65946066243682,0.483577888311893,-0.141578426482731,9.34200528724286,-4.32194074143566,-2.16619548384329,1.33809564284197,0.0689901381033839,-0.278100001291095,9.61925251016612,-1.13699467588989,-1.53431791513689,1.98807521653469,0.262082925115838,-0.119458894156527,9.35172161740327,0.535083455351834,-1.43920444514204,TURN_L
0.55,2.99471717405504,0.468469139589187,-0.154672456643976,9.16707396911138,-3.51532712867853,-2.2328208555407,1.38116042457773,0.0370029996051556,-0.295852414896072,9.44016013333308,-1.0609647557806,-1.58985006699156,2.04582211796995,0.247092934490922,-0.118501300182194,9.49864026456243,0.601002292758041,-1.57353267350921,TURN_L
0.56,3.28292055208509,0.44830528092215,-0.174763862853166,8.98894789836876,-2.69407112398736,-2.44007572743338,1.43448714569801,-0.014448491258229,-0.33429019713488,9.49154380115555,-1.3450054980679,-1.65693128799689,2.11889732848319,0.243980122464875,-0.111690185430131,9.51274503351158,0.727004515619194,-1.53584143908466,TURN_L
0.57,3.52309793451283,0.406093713494918,-0.193225208942456,8.94631833114155,-1.73584655127438,-2.69460904678371,1.54853259068427,0.0054588624385883,-0.357488568024425,9.6960845415027,-1.266657060796,-1.7509982638183,2.18770558953017,0.246160228738896,-0.0980573380035452,9.50816226965454,0.956742372614972,-1.49578597343819,TURN_L
0.58,3.71004745444038,0.368054999649521,-0.22153177630343,9.02961892890716,-0.827412918083073,-2.93108313552312,1.61726193321066,0.0322662038478483,-0.365550486923578,9.4364333083155,-0.729002559317029,-1.53839053984603,2.2507310759219,0.248994821626334,-0.0820579134549849,9.46072674560473,1.12163481862794,-1.47565787819304,TURN_L
0.59,3.82874273680278,0.309485437553379,-0.248528368526532,9.10512721948168,-0.110874324870741,-3.11335425946019,1.65608858996097,0.0380511239562792,-0.380166362086538,9.45907263712297,-0.674450024367554,-1.47403706472032,2.30458780986121,0.252303752647824,-0.0749640307753558,9.46839459914935,1.24564143680726,-1.35982634558682,TURN_L
0.6,3.87544205319009,0.227117749292057,-0.275322883689592,9.09814483041354,0.569090390767849,-3.15173012969456,1.65989682677312,0.0207963675802277,-0.404266814068151,9.5176009218386,-0.744232228720965,-1.74945625094968,2.34773690406226,0.24528200122479,-0.0627298591127982,9.52556514589643,1.3544856121334,-1.30099488225809,TURN_L
0.61,3.81438242818104,0.152571563428194,-0.289242029976474,9.06879338087028,1.25930519859879,-3.08360697051845,1.66869977755986,-0.0365208787842461,-0.427299809435177,9.33110991668014,-1.0563695648429,-2.02478829674397,2.38756485317122,0.231203209538728,-0.0408852362644202,9.56603430712506,1.40497386964194,-1.1814271350924,TURN_L
0.62,3.68613389714671,0.0806622824516549,-0.282081288559593,9.09698992025599,1.82967471211974,-3.05252009077254,1.73507569688797,-0.101596518368994,-0.441104385142754,9.22507165641531,-1.49462848022555,-2.26061301693015,2.41616177091963,0.210845197494152,-0.0110742279169201,9.6088687896473,1.35218574013061,-1.18902607289703,TURN_L
0.63,3.53052510632963,0.0265790895730348,-0.271410516433377,9.13224131538443,2.33702699688151,-3.08993187682119,1.86523771967355,-0.163688706042027,-0.478237727007312,9.41499627652248,-1.69333125203404,-2.37150057575561,2.43581573400278,0.197098282753827,0.0198110863186826,9.66000318942741,1.37684832683974,-1.29992244101609,TURN_L
0.64,3.38379099642137,0.01760899691731,-0.256278043243637,9.1666264086951,2.59781228838846,-3.18944691980606,2.05328579163528,-0.195082850436895,-0.507301959583606,9.59968345185857,-1.77719724520718,-2.04692098755071,2.4625648448719,0.200171385102803,0.0548532823678297,9.69164843174652,1.48930913419498,-1.44516070912265,TURN_L
0.65,3.2700054173344,0.0180609534706848,-0.238486802944699,9.18027313471957,2.87442205591257,-3.16868283487926,2.21848567874065,-0.194309691110622,-0.54422750609522,9.91839722114013,-1.65810385940212,-1.66218663331702,2.50403616181115,0.223058894131065,0.0869422182243897,9.75983558917814,1.70439826917582,-1.196584152584,TURN_L
0.66,3.15805359204379,0.0122287772021775,-0.223801426953431,9.12838073268446,3.06527880981507,-3.00404393878594,2.35274002355926,-0.167453337491437,-0.59507492060789,10.3071429552385,-1.28088935473087,-1.50836270122614,2.54425806929059,0.245407397683185,0.119470358126512,9.85767747513506,2.00170583597649,-1.17452083105098,TURN_L
0.67,2.99745495822315,0.000992513153207,-0.221126978940445,8.86256467350856,2.90637865007973,-2.5147660197293,2.3958506511829,-0.1355616300932,-0.613903124366794,10.2537399560853,-0.824917608185664,-1.49168921746616,2.55781256309121,0.264724663001368,0.15705517051848,9.88787335153321,2.27639615256129,-1.17963538044031,TURN_L
0.68,2.81764578650704,0.0065923416242053,-0.230708600823439,8.5662821303757,2.47239698212529,-2.17863465359847,2.3545107848338,-0.0648533874351871,-0.615553770449411,10.1319698058969,-0.541391688546877,-1.55940673349611,2.54654746040825,0.270795840192906,0.185326227208398,9.75702524126395,2.41444817458422,-0.990421472372084,TURN_L
0.69,2.64268250813449,-0.0033965437434549,-0.237369014894041,8.49734535410852,2.05860290652872,-2.11319053268134,2.24927987215644,0.0474624306789452,-0.607462969398584,9.98891111375621,-0.333065349267635,-2.16552092218074,2.51546715911195,0.249410694755843,0.207675422938515,9.52994232556602,2.4313893154985,-0.876188164258661,TURN_L
0.7,2.51937092469564,-0.046950067858383,-0.22527800421762,8.47429659506424,1.67965500639776,-2.29412376153356,2.08998681032244,0.063913445616089,-0.601539012583315,9.32490350602012,-0.139786934861668,-3.22070765928265,2.47494531071881,0.191128004438578,0.214042602704523,9.16624458816215,2.26470932727793,-1.04564821107564,TURN_L
0.71,2.41610821515516,-0.108937274633226,-0.222541053239259,8.59336462466797,1.46102103809527,-2.22373488715143,1.90072181236645,0.0744122951945414,-0.562017498241011,8.84980136365145,0.312776620230822,-4.02717484301949,2.43016190779643,0.14362235858688,0.205988163334859,8.90809571572989,2.07663205797428,-1.09952099761147,TURN_L
0.72,2.3575188679711,-0.14853790508604,-0.213748871848768,8.79014736914887,1.1409031292531,-2.21759334889947,1.71893505436322,0.0781269441951713,-0.527675570652394,8.46760500530502,0.920127300679969,-4.28989979517396,2.40183226756763,0.115533997431878,0.191837935026836,8.81243524679515,1.86123168607312,-1.25710805864522,TURN_L
0.73,2.36884814138393,-0.183626699716324,-0.207950725002939,8.97084823114529,0.770553834233514,-2.03892087351035,1.54334487785908,0.0774596106058623,-0.4939104303179,8.04715961887014,0.568490954017952,-4.22010587729294,2.38577119892699,0.119852769171247,0.177337991745752,8.94697846938572,1.85984070359125,-1.3281018249705,TURN_L
0.74,2.36196950897482,-0.212483493392422,-0.198922283198642,9.09008252431535,0.581986782471141,-1.45841460473456,1.40847605527988,-0.0432184891565479,-0.52763643835845,8.08267453817344,-0.57390314586677,-4.18696050188399,2.37344311656252,0.151683274442852,0.169529816026486,9.19204432529735,2.11250012999027,-1.16408810354236,TURN_L
0.75,2.32912733455833,-0.315540008234675,-0.19257155766927,9.11476830643971,0.519044591162007,-1.03718585885666,1.36327132799954,-0.126014569030758,-0.567995485906069,8.56827233389899,-1.12369558570493,-4.14573119093154,2.36218500806815,0.182552790120841,0.169961903906814,9.49323445361501,2.4818335803052,-1.14766737538091,TURN_L
0.76,2.23745359677768,-0.486106962825376,-0.174461657178765,9.20821463996296,0.885381509041445,-0.676742507963139,1.36337431026172,-0.182208505600346,-0.579162329761028,9.03441440006086,-0.978828351106827,-4.12300346917596,2.33625213554823,0.20581233992347,0.178060530769921,9.64777428261651,2.89295848118515,-1.40649286055824,TURN_L
0.77,2.07076737490327,-0.596737871836856,-0.178394333736858,9.22690487129647,1.09615894683518,-0.423455338043255,1.39993839319911,-0.170588680951173,-0.552635540140034,9.38035840030134,-0.778980092335721,-3.27570326292433,2.30176077804507,0.223897897049284,0.186716464618503,9.7673401051189,3.33582654218621,-1.43615062229511,TURN_L
0.78,1.9524435497652,-0.576767575355449,-0.194933315491627,9.47305692087549,0.872730359002024,-0.566881315370834,1.42697951389133,-0.142146915671937,-0.546197722140405,9.25783082398868,-0.410046773968343,-2.61158972852,2.23152362829573,0.250509729850565,0.185363489778452,9.75280000881869,3.7761927522507,-1.22121161465633,TURN_L
0.79,1.91470633828031,-0.485906080769817,-0.238115558585327,9.45201395269439,0.501361670515193,-0.631060066827695,1.41371064125552,-0.0769939153243409,-0.548422901260878,9.34782304148716,-0.0610382800502494,-2.06013286150274,2.13761805582797,0.254867175270565,0.166704878987401,9.73956640419161,4.03089775127481,-1.01682115005932,TURN_L
0.8,1.9310961325354,-0.406601404101257,-0.289054754027717,9.01580861002547,-0.213240717425842,-0.874691293253729,1.34271391365479,-0.0541653525683555,-0.574647786177781,9.52182485444637,-0.0885590743039038,-1.668056275923,2.03914406857095,0.242873336027861,0.128546833451849,9.63291080290704,4.20440585470579,-0.667152364057956,TURN_L
0.81,1.89105357900749,-0.540063940858974,-0.306610649766014,8.40841170483683,-0.879053734062982,-0.830239939956868,1.30129121075164,-0.0583629334548682,-0.591310376375427,9.97950294447147,-0.099820960367676,-1.71044453693589,1.92612866312252,0.190231831227633,0.0898046044780938,9.62463021843313,4.25677910289116,-0.665838186982861,TURN_L
0.82,1.86848556282817,-0.739305368351679,-0.291679312060115,8.41917412636125,-1.36352983240326,-1.48943091421632,1.26559419636315,-0.0715079272626705,-0.589933084111784,10.2080580577827,-0.22568662854424,-2.11286048061195,1.79681952503223,0.128273777295687,0.0677686170515377,9.56741796683582,4.14483288596892,-0.840387463876898,TURN_L
0.83,1.99753676963258,-0.73380705691813,-0.247798196616913,8.85266222092695,-1.60231587022514,-2.15804380690411,1.28727537353013,-0.100988346743984,-0.563140152336017,9.85369167291945,-0.228405613060347,-2.49725874515981,1.62220276139889,0.073168851560384,0.0563415696251472,9.33772904780077,3.96501243180991,-0.661709786925946,TURN_L
0.84,2.04556003796798,-0.649549164883577,-0.24142322742747,8.98319748427386,-0.770078710402333,-2.07144415155508,1.35042332762052,-0.1616316915804,-0.564863437406257,9.51409263226615,-0.795012683914937,-2.52384341757559,1.45083133771992,0.0143778703225408,0.0526833892169204,9.27201279585182,3.84088584482813,-0.639405233073759,TURN_L
0.85,1.97937681468108,-0.706705873844985,-0.293767498866548,9.31874046030636,1.61772647768293,-1.79707906019105,1.41522631934897,-0.255350148832247,-0.617354628601079,9.6811515108236,-1.32270703501697,-2.55938964656413,1.37537826910416,0.0006172896890954,0.0519049096300906,9.31586723891341,3.70236914058076,-0.11247956008738,TURN_L
0.86,1.90985978926723,-0.687471082806515,-0.444302663459788,10.5750723710882,4.91406170786731,-1.00905800626791,1.51097161319909,-0.339353021558922,-0.687709198705084,9.983899313575,-1.93854615627806,-2.45260953267723,1.35374053683038,-0.0022459369847445,0.0381089479676908,9.46153796736179,3.59383737365906,0.28951748539654,TURN_L
0.87,1.70006136832563,-0.421785167289816,-0.63655923978678,12.4090114350399,8.54349526333115,1.38033471186239,1.59671166884511,-0.358091584023327,-0.735014111793164,10.3251275506886,-2.69713039779321,-2.27897879247012,1.35855217271982,-0.0036560227250009,0.0125392805275248,9.59964777215191,3.31397357951781,0.570669140456911,TURN_L
0.88,1.17745108065767,-0.262948696914646,-0.814232013389031,13.2813654153363,10.3449344969115,3.61339590464929,1.64782811071989,-0.234326208753244,-0.790019097197179,10.3182792751613,-2.34735384202507,-2.73656218693938,1.35748811101409,-0.008726276054801,-0.0174141278583062,9.85694391933388,2.72376337479919,1.06112192776506,TURN_L
0.89,0.825660950787007,-0.363246125734523,-0.800568984205365,12.8263129820356,8.42955162628199,3.04334571278412,1.69784086787194,-0.0635598208130644,-0.854627154378187,10.4164394574938,-1.64054694251853,-3.19006324420647,1.35843435542177,-0.0439645544457001,-0.0456508150833496,10.152981286062,1.95270921575762,0.821876656538632,TURN_L
0.9,0.854359234024798,-0.434538582426182,-0.644895253695766,12.1505810883239,3.7513603045631,0.818820609819805,1.82450558640564,0.107789733720456,-0.889782382644235,10.2371325425658,-0.833253018788362,-3.02548093640585,1.39114086273514,-0.0730117782876977,-0.067317172541037,10.3522566855412,1.05381899009246,0.604375885345969,TURN_L
0.91,0.813549591910864,-0.40853697575665,-0.558882021908105,11.6294167372395,1.24331156917622,0.525336198601894,1.872280909437,0.191435551307755,-0.904385502883686,10.0444118898175,0.396409392218127,-2.95802065936607,1.38648406726128,-0.094796530319254,-0.0666355026929165,10.3756924048807,0.242223867527898,0.544006845583332,TURN_L
0.92,0.60724775297239,-0.336401695988546,-0.563033257401051,11.297026789044,-0.464038989536699,1.70848354219791,1.90357251884699,0.215937546960159,-0.915262845772224,10.2144032205628,1.3658270197983,-2.67899569407042,1.39097516578181,-0.129581948773751,-0.0458079225937525,10.3357107968765,-0.122172443280829,0.0262227610368225,TURN_L
0.93,0.474567113104443,-0.268381642850157,-0.580446160092722,9.74163735813541,-2.43222006361762,2.07359679100811,1.94331108021282,0.165093652646907,-0.927442185818612,10.2689825821096,1.63034106948445,-2.06482449402211,1.40332694356119,-0.164535118174381,-0.0020071295194103,10.0552914503496,0.0527707037118979,-0.262731178746732,TURN_L
0.94,0.563639276725762,-0.289286194103775,-0.53439240978967,8.61317098638387,-3.0162744259049,0.362906100136123,1.99070255228741,0.0959894923823764,-0.928163785093912,10.3848498556134,1.8612547577762,-1.47954456478998,1.39597500267621,-0.198332253736101,0.058812161958573,9.71262355375536,0.697178406340648,-0.461746738652279,TURN_L
0.95,0.825281134796335,-0.301512554518116,-0.469230997137494,8.5357632170114,-2.1139879419367,-2.28579838288073,2.07451567734919,0.0823441673064157,-0.928803775242732,10.5297795674728,1.89348338846869,-0.86539812405964,1.38030585909237,-0.197593516964903,0.121025011443791,9.41161584073313,1.61591114381814,-0.451745289950852,TURN_L
0.96,1.10190930449851,-0.275537580207205,-0.403500203665852,8.65851997280765,-0.742042694411395,-3.84050475445812,2.14859276065062,0.121945056203169,-0.950204599596818,10.60787736658,1.58022409467219,-0.286601526315698,1.35733784020338,-0.184292488805275,0.173989287286298,9.16873831832465,2.41801634007738,-0.0604672645054047,TURN_L
0.97,1.16723326463267,-0.292815045884427,-0.370585936950519,8.63574933217371,0.569685994755456,-4.4766827271438,2.15226261056342,0.224615877389681,-0.986974577662544,10.8773163302551,1.19271087991524,0.326515956208232,1.31645791904234,-0.188947201526971,0.204917254575473,9.02805568168755,2.90260847853096,0.0824988918355079,TURN_L
0.98,1.18981358714313,-0.350906432737746,-0.38559878337226,8.78341844294378,0.548941012459409,-4.73041929056528,2.08739879744893,0.390435757562342,-1.01386970749724,10.8771208066409,0.893407096179441,0.986639125426224,1.25998664775137,-0.161177061928708,0.201435779751153,9.09974315880116,2.9213001185726,0.317809647424155,TURN_L
0.99,1.27619067561766,-0.381818308311495,-0.423153602363788,8.99038550384812,-0.857451904880764,-3.65317466435289,1.94955561567094,0.53412152272839,-1.03472353775413,10.6224156700474,0.965546907734096,1.38232725535294,1.17924427505142,-0.0999893188715268,0.173771099859779,9.26939147201025,2.46877692917131,0.427903954711256,TURN_L
1,1.35999645112306,-0.410585193190689,-0.424996321673942,9.07211308857187,-2.35370219320354,-3.37768034383242,1.79749262442638,0.68815969972139,-1.07239458847933,10.6225324055067,1.10865999290627,1.55773830211458,1.11017144529512,-0.0178157912129409,0.135136817175987,9.55474609340294,1.62697772735786,0.567599090059788,TURN_L
1.01,1.44185213638992,-0.366933768401284,-0.402311986239502,9.31207284954067,-2.42771813482416,-2.6283064777706,1.63858726416152,0.862049864138177,-1.08823304732466,10.6846788564192,1.16243777689397,1.3509175317138,1.04074112566048,0.0572113029887409,0.0902879594557828,9.87800786277886,0.724693550107191,0.558940043655067,TURN_L
1.02,1.61400337656287,-0.300197181866115,-0.34145314927668,10.230246984439,-1.29851948259347,-2.75892130867928,1.45642725737527,1.01119180112281,-1.05015213408123,10.5112649590135,1.42358043905275,0.167186148816831,1.00298326719005,0.129523318624774,0.0470587446409685,10.1289345039304,-0.115859189265471,0.585496591452304,TURN_L
1.03,1.8034040967706,-0.240297024754092,-0.288292966199226,11.25749968705,0.610228122445991,-2.67550295172921,1.31180576987942,1.23737527566788,-0.920258659771523,10.1818575140224,2.09427953174155,-1.14172155202113,0.986157588251307,0.216834032064418,-0.0153680360387429,10.3069682664155,-0.913455792978414,0.632817082213778,TURN_L
1.04,1.8070792292658,-0.193092276321231,-0.322878400847125,11.2863820631665,1.8607163188467,-2.15874574574316,1.13226712864212,1.52489984255319,-0.745929637262938,9.81053132681072,2.28832335440023,-1.59654451567956,1.02464389836956,0.287449774930154,-0.086207208130208,10.3763239359872,-1.36726878645833,0.824257175241683,TURN_L
1.05,1.65973585615735,-0.108663977122944,-0.392141204336233,10.3307956470827,2.33446547181024,-1.73835172249741,0.9513164450833,1.64426364068438,-0.587835409210095,9.66234949237288,1.25143738259356,-1.55218116966482,1.10752206033952,0.322968591374563,-0.155606269005309,10.467709460474,-1.53339835750497,1.08820413830974,TURN_L
1.06,1.49537082848054,-0.020765761558861,-0.396554311770724,9.73920759207002,2.75822382520192,-2.38596571176492,0.802198052171045,1.60681608113695,-0.453792642465064,9.89529978991971,-0.258427828654568,-1.90029391213256,1.19057955013612,0.317804736554306,-0.202198902206332,10.5345124337296,-1.58125709040771,1.22286887717993,TURN_L
1.07,1.44349319732961,0.0451668117410904,-0.367912424138729,9.5479274675997,3.1053976428968,-2.63096476896682,0.71837358798616,1.4164829151348,-0.321750623932947,9.93728100349484,-1.57794892666346,-2.66369134699181,1.21427251761459,0.305928021072165,-0.216503798019933,10.6244602388823,-1.53071279561652,1.18671551156162,TURN_L
1.08,1.36369754326141,0.0453312227629759,-0.339115259746636,9.31020974335225,3.104966397404,-3.12487683848579,0.704946304263495,1.14095222291726,-0.206659708147122,9.77329438637356,-2.52771569363791,-3.67613687293366,1.20128244791842,0.296728292557425,-0.185773536079226,10.5719317125798,-1.35502400966969,0.92458258039036,TURN_L
1.09,1.25527578261526,0.0448569229630115,-0.338832758605422,9.1474863094976,3.7235785827074,-3.52195522675442,0.800794945815895,0.933017976798823,-0.122238901258772,9.89313203385204,-3.27555835866956,-4.58758226631699,1.20450806975473,0.284540205664282,-0.114353227508618,10.3751758783402,-0.96593981251376,0.877141944069377,TURN_L
1.1,1.15012128234923,0.0236864740333705,-0.342153730026532,9.10128677654891,3.51766761553599,-3.75815780659243,1.06341153754286,0.845589198084862,-0.0390264021531544,9.8686619701365,-3.62129876186492,-5.24483779957193,1.20450806975473,0.284540205664282,-0.114353227508618,10.3751758783402,-0.96593981251376,0.877141944069377,TURN_L
1.11,1.04710775828105,0.015251899623351,-0.345492742047638,9.12351976750296,2.63910675614394,-3.83026691835771,1.46511847216318,0.778853964201594,0.0270544831263923,9.69650704308237,-3.73452485983446,-5.92064800921627,1.20560953366543,0.242755298196925,0.0234737421335655,10.1940703273176,-0.067396926635318,0.659177485607985,TURN_L
1.12,1.0279525055323,0.0063919782129872,-0.337830598822969,9.23016586971777,2.17809350317422,-3.62692313598075,1.96966569134628,0.734762576779345,0.0750573609762197,9.486076499663,-3.87955145013687,-6.47358010199982,1.16344543369775,0.201636233816986,0.142766536048021,10.1104731346509,0.67753830050948,0.326972730471883,TURN_L
1.13,1.00617662307209,-0.0209512559994692,-0.329917468656727,9.21491111801388,2.23563096235941,-3.35564411475037,2.41847848432028,0.70116590816983,0.119846877009994,9.31166454021631,-3.5125423807414,-7.01886225889102,1.13498171105627,0.205008242957412,0.201082180334192,10.0905407593591,0.883149676644658,0.213618295259329,TURN_L
1.14,0.988882877944875,-0.0626517694470435,-0.328712134283141,9.29077766457321,2.23971967427156,-3.42994548167234,2.69819895278581,0.640391922986751,0.125599646387523,9.1876026275768,-2.41877985035793,-7.20409018437379,1.08437271286315,0.213974658945867,0.232121873056014,10.0358344345726,0.825794810886425,0.197234472547771,TURN_L
1.15,0.961876863340793,-0.0584746273209554,-0.332936869680104,9.21460810053189,2.06645239726195,-3.05636205024747,2.87866975183161,0.612805592302659,0.0826634829204065,9.10425231920642,-0.873919460968979,-7.10130837015716,1.04685160286152,0.219490199435615,0.227128810552017,10.0015198506309,0.623545555629466,0.0795818774475384,TURN_L
1.16,0.905852092275004,-0.0443957735222753,-0.321295696542144,9.33268452300821,1.68476243966902,-2.57010681787101,3.03502771635729,0.594584002709289,0.0250213877238234,9.09625136673233,0.811054353001761,-6.72579712067844,1.03144422933195,0.230247892306585,0.20718886835136,10.0150479271096,0.378425471651233,0.188125693871506,TURN_L
1.17,0.870159743238313,0.0108451174313749,-0.308697673070132,9.48714276241191,1.05888027920079,-1.95375340374927,3.15764300586545,0.579804773796841,-0.0269497692841269,8.66778668773328,2.17769401190354,-6.16095694149849,0.986882835736241,0.238441479728551,0.17105375830039,9.99710443587273,0.125261956270463,0.338958704873783,TURN_L
1.18,0.856896287649784,0.0484180851772251,-0.286232693046292,9.60473468926553,0.814001999374415,-1.58935277572599,3.22409161354155,0.529019225322788,-0.0927123699408097,8.41619006873903,3.2107709719752,-5.36147846291919,0.92498552430133,0.240179233404327,0.11960458086939,9.99786738647217,-0.0248420765932342,0.380928128974575,TURN_L
1.19,0.864725059501529,0.0717125947394069,-0.2633766818286,9.75276496966608,1.15653298793655,-1.33567061723279,3.26093752847226,0.505847179924541,-0.142880658221523,8.32757559521986,3.42640106332351,-4.6327639895736,0.879137542761404,0.225187829251396,0.0728149063080787,9.79295886322208,-0.0081710158850479,0.308844831580898,TURN_L
1.2,0.876008073854771,0.0897107777024218,-0.248312045566177,9.85004187680177,1.29752830437174,-1.14858356578648,3.27071811479344,0.480573978197343,-0.159518044668737,8.14286234340749,3.46260335023847,-4.15744376529705,0.854523737912323,0.219315109448635,0.0336431545454517,9.69426882310497,0.0525365480324305,0.106662963393518,TURN_L
1.21,0.865963846348859,0.0906495967987192,-0.221114354096754,9.67303598702939,1.47071479383169,-1.04287869089762,3.26870563376139,0.437426346208443,-0.151400487614761,8.22070592727081,3.54232968767417,-3.88836345312584,0.823370130139023,0.221224432209499,0.0190018549387349,9.62237341860982,0.0911271123310803,0.243855086298325,TURN_L
1.22,0.791262127427388,0.105025638642428,-0.18088539085013,9.48666609597814,2.35284561490852,-0.967894651535849,3.21569158950979,0.405627663558595,-0.101093742960396,8.52056553605259,3.56996863340212,-3.87846692112792,0.758233758239691,0.213509939500248,0.0234512059456505,9.71503451369189,0.256524078907334,0.294088377729804,TURN_L
1.23,0.719888839525618,0.112961334152266,-0.137031479844146,9.41850937881373,3.1521612237668,-1.29420249152584,3.09012133011304,0.37815526400739,-0.0123810147026859,8.86536487296994,3.3984657847827,-3.95355681694747,0.703626030313798,0.175441734361261,0.0439435608827968,9.64380271372226,0.422599751487838,0.138919274828904,TURN_L
1.24,0.588010863750293,0.105345590560795,-0.0754893130231248,9.59778769931977,3.82843323164313,-1.55355854017505,2.9365347947422,0.324967753292672,0.0925361953402938,9.17568456198526,3.34638446024707,-3.86208761272534,0.628557985216782,0.155634438409623,0.0764328398757768,9.5172213641328,0.524405424257788,0.240221942661346,TURN_L
1.25,0.375910182155713,0.106736034719291,-0.0318501300997529,9.57808483041226,4.0788175888438,-1.86499705429492,2.79949222333525,0.265757060110008,0.214294879984451,9.38373455817226,3.25178426560158,-3.82324692439027,0.531112067442273,0.144206299869977,0.103518178564246,9.30219228824844,0.68893874028616,0.315643839453526,TURN_L
1.26,0.183491951655723,0.0989535785457173,-0.0039651972532921,9.4654925868641,3.50593721814888,-2.0273579457252,2.64974394064717,0.163089988953706,0.329863793169106,9.35687288371013,3.35882930269373,-3.84095600213314,0.418887293827097,0.132578131798267,0.139200524373466,9.24809420615342,0.880432986063327,0.270340370191089,TURN_L
1.27,0.0209394877025344,0.0674415051624687,0.0198032895692155,9.46149861327831,2.68139643207313,-2.26733095364218,2.45990649654837,-0.0222797066614703,0.415775957433575,9.23424255969615,3.76891797349792,-3.41896147742262,0.319264941725253,0.110226572752435,0.161375104439635,9.09938302309899,0.912059897124188,0.327665326410604,TURN_L
1.28,-0.0487548640381854,-0.0010721900300743,0.0349417063710317,9.12323823623478,2.12690887138839,-2.17666420013685,2.1769067523904,-0.256572789039714,0.439123496284199,9.0720120527194,4.01895882441214,-2.83505209350962,0.244758208138025,0.0765046739295123,0.15936099974004,8.93456482049258,0.882412510485704,0.255020294872858,TURN_L
1.29,-0.119974013110776,-0.0840582660092554,0.0359390277545152,8.99997632366963,1.69249794198512,-1.7966085737578,1.73064306065272,-0.339997166544582,0.408488020163599,8.83716489696044,3.80538709709702,-2.33363125381366,0.210319633781063,0.044947199482583,0.126550535473586,8.82751219641706,0.746938946524646,0.102361544837311,TURN_L
1.3,-0.131136204696304,-0.145491714934369,0.0368647799936538,9.13067556624712,1.57475347949152,-1.78241958609644,1.18672989301119,-0.290119754989482,0.344677650524414,8.22542515477669,2.82973906200842,-2.16033347280895,0.226359616902501,0.0108592370136347,0.0810176723411315,8.86609413130204,0.555899525784665,0.0223732992457522,TURN_L
1.31,-0.141130881493132,-0.179507405234366,0.055645256216814,9.46757862664387,1.19209762795183,-1.43818905980619,0.725980672779159,-0.330529294733114,0.261071738318377,7.91473679057608,2.59833590391855,-2.12640296969984,0.262937107259574,-0.0246946646492373,0.0494865443074953,9.21322462025647,0.302082692391061,-0.0772467625495843,TURN_L
1.32,-0.0804136970827951,-0.176795010207405,0.0680102592802908,9.78255141520455,0.615750547752207,-1.10803619001095,0.494893023047871,-0.479877553590401,0.172165255039345,7.92117723410215,3.74678540945082,-2.41209087147336,0.279737752625021,-0.062503290115828,0.0211719779986585,9.56235402837029,-0.0632324847113075,0.0212612941048078,TURN_L
1.33,-0.0010393734537416,-0.196499674930603,0.0974488453322396,10.0539867943093,0.444506667452255,-0.668618847360952,0.540353458132633,-0.433519776471195,0.128949907612548,8.4542584262404,5.5102504170256,-3.28267247817783,0.276242031865061,-0.0904666251178544,0.0091496709360485,9.78574661288866,-0.350422637912185,0.0644407983744626,TURN_L
1.34,0.0720080543968002,-0.206629713864149,0.114244384324928,10.1776971127524,0.764562065173797,-0.196380499635691,0.688483147456786,-0.366488507556034,0.117999900608285,8.08036052988668,5.78252731913597,-3.33514557589112,0.27298029537331,-0.102230342098195,0.0052669446170745,9.90693940583146,-0.496597554515732,0.0886171754977527,TURN_L
1.35,0.125977403384274,-0.178358745366378,0.133238922001902,10.2452482784467,1.07688592440721,-0.0699907412758601,0.67301399931805,-0.394633264840127,0.0971962859635296,7.65648268954333,5.07712780809496,-3.14759231280747,0.28536685099067,-0.10208116923334,0.0061896359287044,9.67776398007202,-0.519882403291747,0.20663836941581,TURN_L
1.36,0.0936236527779546,-0.114988840317922,0.145353138800441,10.1749638535827,1.39671229066988,0.161602861245234,0.509786839582841,-0.28154174242906,0.147327626748183,7.84921756271749,4.24176325766004,-2.42044928572213,0.293987062690612,-0.121489306035477,0.0089392388703915,9.37114042719623,-0.644990029054634,0.428775696905699,TURN_L
1.37,0.0159305970075068,-0.0538012304229376,0.161051135935436,9.87055168460764,1.94169942009913,0.161929993582492,0.186455576061904,-0.227079622997744,0.216730136115216,7.38120573770062,4.08859872983675,-1.26819419104104,0.279934225443362,-0.140418472221551,0.0223538525363803,9.16601225762664,-0.63879319052995,0.443047404772813,TURN_L
1.38,-0.0573986141764472,-0.0131735649705748,0.172865305157012,9.63289578872897,2.51187753371903,-0.0085631658718187,-0.306980778805135,-0.338382167824293,0.250757798194447,8.16859834332947,3.78442421422428,-0.312027109932099,0.287650393763299,-0.131666027546617,0.0400868495890275,9.22332803108725,-0.363414101857911,0.254930889864241,TURN_L
1.39,-0.150532806330912,-0.0026214254436121,0.202326261150922,9.67670148977037,3.07095440718257,-0.617364235522312,-0.681008210762052,-0.369017983788949,0.276435996491141,9.42444437316588,3.32423284241991,-0.0594718468120438,0.311289020948409,-0.121312534239124,0.0623828036606713,9.20250156924443,-0.042446661975162,0.270111831629088,TURN_L
1.4,-0.267217037346934,-0.0116992341360492,0.228769200076164,9.92131215280559,3.42415621455571,-1.14194727670898,-0.8614197529523,-0.595370780287747,0.239118407357128,9.0853689459761,2.7894091842274,-1.58548272119624,0.328699042468854,-0.117221473240644,0.0839927737014082,9.26780644647973,0.395783287084473,0.381329262927351,TURN_L
1.41,-0.401860436140939,-0.0197955868551784,0.248319045036386,9.83483236581273,3.01394396979339,-2.14913767674784,-0.968726673888031,-1.13053832222635,0.153553197930701,7.84949459945965,0.549826606879546,-4.48489583890019,0.34630965538992,-0.131975128030252,0.11827086980084,9.20063170234013,0.775479392006515,0.27104956923837,TURN_L
1.42,-0.525419674510442,-0.0180798440256831,0.270635947272801,9.50799865184461,2.24969739117357,-2.52864246243836,-1.18516809742655,-1.47856029090169,0.134585077375206,9.47622566987121,-2.80738635193865,-5.30904548283095,0.337868812942469,-0.170222527256565,0.164852304833404,9.18338392080922,1.04441963943814,-0.114839774111453,TURN_L
1.43,-0.600024807700046,-0.0139480161721288,0.276413938684438,9.28514332678762,1.02222423004503,-2.81651873953603,-1.19761276383052,-1.16683853355376,0.252805313451112,11.613839374406,-3.76703088174466,-3.16629940200099,0.297972479087151,-0.200949940871101,0.200417657100502,9.31285286809506,1.25038985855418,-0.430235694296669,TURN_L
1.44,-0.586656863739214,-0.0221734992100416,0.282356896526987,8.99962458639094,-0.166699419648845,-2.82341829159429,-0.677336777527941,-0.973496204918466,0.315336422533655,11.152966854019,-2.0190220576927,-2.27935729174251,0.245903967819518,-0.228823604309823,0.23106007300457,9.57427517586246,1.42137469995149,-0.394705379912839,TURN_L
1.45,-0.569488400551636,-0.0723691082702571,0.298994234712206,9.0787822353108,-0.636544532104251,-2.92309148257771,-0.296691158332271,-0.908829959375451,0.313824414292374,10.8398343065172,0.177375296062047,-1.58880004749548,0.193466194780707,-0.268297441402374,0.244166743670481,9.90906701962769,1.63348814307331,-0.360259646089951,TURN_L
1.46,-0.533072846959268,-0.0940646681963576,0.29971570153494,9.08937018238154,-0.886858234415254,-3.21948707620722,-0.382205366194047,-0.882579998720859,0.240195522950598,11.0601975016652,1.03628314323796,-0.80245968972121,0.158302751651798,-0.32663257567785,0.249582891779738,10.347076067672,2.11926095887019,-0.449507988147672,TURN_L
1.47,-0.503843148738259,-0.107560971712584,0.275955670020156,9.13864504074122,-1.29765062802932,-3.41537844895754,-0.461592326989401,-0.801392125539017,0.149301452601004,11.4232216071187,1.78342357388133,-0.480878140306288,0.119970561862126,-0.367280698064026,0.244596461043756,10.8075435223797,2.55746832353552,-0.382194315483357,TURN_L
1.48,-0.507685375511747,-0.113644771466558,0.254209843537387,9.20735055628677,-1.48838691367,-3.51164272668258,-0.402712459891484,-0.721676166726695,0.0542463744916013,11.2134037406734,1.8039370593101,-0.569802725424954,0.0227943967936371,-0.36830171649622,0.219746486085096,11.1018875342757,2.75477737376571,-0.309828561136254,TURN_L
1.49,-0.502724817810474,-0.114497954550066,0.248623740807505,9.28551858746733,-1.48075036579247,-3.47888466412544,-0.372214324486159,-0.613559361219056,-0.0030731952376182,10.8513033404388,0.821499008403553,-0.670078338437756,-0.0609718516619973,-0.315727573563149,0.188418428462999,11.107768944175,2.54581933420808,-0.506871511303942,TURN_L
1.5,-0.446109777411641,-0.107323455803609,0.230395277020088,9.27330131417586,-1.45146508142252,-3.30883249616865,-0.326925400082215,-0.525152438467651,-0.0180443479023315,10.240771244697,-0.344147183744359,-0.765979414248075,-0.146085706045498,-0.231462289282635,0.141965124098191,10.9452223718211,1.94200507037849,-0.367233693509123,TURN_L
1.51,-0.355713609712812,-0.125002009772607,0.239327085052017,9.32442233697248,-0.983425649654238,-3.23301833369347,-0.215543234189403,-0.457005297350704,-0.0140021210810595,10.0230302943165,-1.13243327488619,-1.05093770239556,-0.243255183847573,-0.163044588439713,0.103601169220459,10.6433015996885,1.26366427624301,-0.0592860764597784,TURN_L
1.52,-0.278771824105295,-0.134416298747343,0.236300867876597,9.43963159803956,-0.478273924649504,-3.04600467882264,-0.0654722756291571,-0.383901469394456,0.0052144459030408,10.0516876164598,-1.16724003179483,-1.51532875047111,-0.330402868448426,-0.126720566205935,0.0581676224532543,10.2964925261927,0.690403912927466,0.269707508323772,TURN_L
1.53,-0.215462862422703,-0.142273084529084,0.227776517146237,9.56425143075222,-0.201226961950448,-2.86464512219367,0.0210333213569323,-0.293796726721772,0.0374177040663522,9.97318530934184,-1.01936964371184,-1.98463454450271,-0.366698024028129,-0.126667007789488,0.0094586729148289,9.94619722487079,0.257980908515851,0.185394257451692,STAND
1.54,-0.155327614311153,-0.154143263689883,0.204928489257631,9.60095328106529,-0.140298340364982,-2.61247730018943,0.0248518633278571,-0.224657014198473,0.0811086301692704,9.61708572400049,-1.11557435417673,-2.07741446485855,-0.34249354788325,-0.138310712987932,-0.0354951118099144,9.46030266374558,-0.0727672988696892,-0.0180239328719486,STAND
1.55,-0.116308998636897,-0.148322461559869,0.170627304467051,9.61569585529538,-0.453334799308697,-2.42909880250163,-0.0546598066270738,-0.17913187500158,0.124088787818276,9.43159391866698,-0.869923564363945,-1.94789220591092,-0.285671894028763,-0.140162416217584,-0.0628202189796546,9.01597990376502,-0.203393416280887,-0.0263921964875174,STAND
1.56,-0.0450935541141868,-0.148561390946981,0.146782732747357,9.62334271489887,-0.645998579310797,-2.39036751912019,-0.112486213561796,-0.138001687697035,0.143402484669126,9.42281722194049,-0.331620592982222,-1.79480825445215,-0.213746635840554,-0.158862542112576,-0.0861266579342814,8.84880159835152,-0.187415680676304,-0.104563418300109,STAND
1.57,0.0716191978636787,-0.16576265407606,0.119140483290388,9.5216551399671,-0.75142726715236,-2.33678289930875,-0.174751470363919,-0.160231990494457,0.148871218715664,9.33415845414156,0.282658254572526,-1.99434174390475,-0.119498752062399,-0.1670542886681,-0.0905924261854142,8.87010992386793,0.0077330986843637,-0.157718596200837,STAND
1.58,0.173159593733793,-0.161215460448736,0.103787822590492,9.49009033456906,-0.774384778252738,-2.25487658981062,-0.267855335081314,-0.206721501773978,0.134217957030794,9.30635872038237,0.556065170954966,-2.21276132362485,-0.0295857764568467,-0.177886222105593,-0.079692453151483,9.07547456092707,0.254174416169871,-0.277712562646555,STAND
1.59,0.243701059546908,-0.151234391328415,0.0867021769265444,9.38945923736466,-0.845679530651534,-2.19536412132243,-0.324485709295677,-0.237166388507576,0.102042129064818,9.37645874146977,0.297230502325577,-2.37644986722427,0.0292475694319906,-0.20264380044705,-0.0623795859612553,9.35279735945455,0.509530393432956,-0.280593161985724,STAND
1.6,0.305543568523368,-0.143880226718397,0.0795155134195029,9.40835636617226,-0.653310847495516,-2.01498150628757,-0.31639540172676,-0.264407694105022,0.0681643408931942,9.44260932623304,-0.141272405826262,-2.62960415605975,0.0694297297395666,-0.235607526546019,-0.0384343780752652,9.58094105167862,0.794106707345633,-0.380260927986957,STAND
1.61,0.335796096332876,-0.133594698579445,0.0866574186275867,9.57823757993219,-0.352222748243607,-2.09823392006055,-0.210459709636103,-0.287392149121005,0.0309150893519653,9.33261789773406,-0.529109539928804,-2.82514509131381,0.106613017051927,-0.254570478013823,-0.0137858306965222,9.83122582157938,0.980934659403665,-0.424909108042722,STAND
1.62,0.313819775252204,-0.123748547490762,0.089237123712279,9.86162252686072,-0.0978122940790451,-2.09447822624105,-0.069330536149943,-0.265583647846354,-0.0043111776199789,9.48818148056164,-0.714533921591293,-2.88413196255306,0.145095956730693,-0.237870489678091,-0.0004632480032791,9.98143527740192,1.0251055045001,-0.297271110623006,STAND
1.63,0.242137553807218,-0.0989857034560918,0.0806888640574323,9.86098638572072,0.353637382679596,-2.07851959635928,0.0701683901310017,-0.211579100669568,-0.0426921545848224,9.55602009035178,-0.693764314695417,-2.91410055910391,0.163500524663554,-0.226047230425185,0.0023273967131848,10.1178513151098,0.984738198171103,-0.228093083265108,STAND
1.64,0.178074749018924,-0.0712521678300765,0.0667642078292874,9.70560064930456,0.846615791412362,-2.26713694155776,0.140107640555807,-0.177095251014484,-0.060216848315368,9.59990092589583,-0.558470123346358,-2.90682674546487,0.176729469567093,-0.219059565183507,0.0017083183516962,10.1351578304235,0.898625480292032,-0.225510104014172,STAND
1.65,0.103551885204664,-0.0438215997574048,0.0378418122058882,9.54822268035854,0.913059744932929,-2.29178652105078,0.177350183421138,-0.13482449006432,-0.0544018194250863,9.62887439418178,-0.511445574744606,-2.8747326645556,0.176697389067565,-0.218132527482001,-0.0050192630722801,10.2126666909668,0.795421970057014,-0.273657575855374,STAND
1.66,0.0679366950727068,-0.0430583922459338,0.0215466756395606,9.34637910662731,0.708436163297173,-2.53858686545759,0.232895694137101,-0.104674468404707,-0.0441299269044691,9.64250597639741,-0.465222126285701,-2.76373590481488,0.176683211705139,-0.199175952727409,-0.0096204687748147,10.131574701275,0.738331365487536,-0.335960881357943,STAND
1.67,0.0302881788097222,-0.0468715037002221,0.012925402670379,9.33660046646606,0.561066541055801,-2.47056985025012,0.265397019635436,-0.066743799066558,-0.0189886001595685,9.57161024964779,-0.109520054946043,-2.72084940694254,0.177736000836786,-0.18740342203387,-0.0124548390578046,9.92012337909776,0.679222390865394,-0.338643409517602,STAND
1.68,0.0150436069502771,-0.0540270526054706,0.0189009393594331,9.46078225686053,0.333819043461234,-2.5144381007582,0.258547300043926,-0.0799966401085168,-0.0152116097531989,9.43047361951617,0.487244033520492,-2.76962465762406,0.173970642221056,-0.1585194306171,-0.0114181186067757,9.75784264820574,0.702954436779992,-0.286708729022298,STAND
1.69,0.0563469439907591,-0.062676708755586,0.024029298879919,9.59667686324075,-0.038280501513201,-2.49928384468822,0.207383774548243,-0.0885072783225609,-0.0124269721640843,9.50139120258879,0.784738277030496,-2.88025195343038,0.153119257025764,-0.117242615618606,-0.0155095779777283,9.74404642078358,0.836008885404786,-0.316207432354752,STAND
1.7,0.0875421194585158,-0.0663715941825339,0.026445607231625,9.65274016339944,-0.375976515173174,-2.47227553443519,0.122971172752324,-0.0891005018419509,-0.0025311414743313,9.39711744678728,1.00488619393358,-2.94078333506654,0.131033522597871,-0.0688340958890457,-0.0214888464309141,9.85009613386729,0.878907554999124,-0.333038671989255,STAND
1.71,0.145354900900575,-0.0636706315897521,0.0240895249566026,9.65233555872962,-0.612024155244108,-2.62395128560414,0.0184704138939205,-0.0873909874413164,0.0086744862362235,9.35542395683688,1.08466921934628,-3.18912755270128,0.0995339864327639,-0.0288155521742733,-0.0268335212031678,9.97838336247043,0.940475894483889,-0.326141757459315,STAND
1.72,0.211846418087527,-0.0421780585321761,0.0268341840904878,9.55554957944666,-0.740084826888302,-2.60061796891473,-0.0703227120495091,-0.100687388123548,0.0200073893094877,9.12890126207002,1.03681250194189,-3.29919543116625,0.0699508187823477,-0.0060949710287739,-0.0324029245479285,10.0434297149407,0.916037592218015,-0.347503754233605,STAND
1.73,0.23704737358271,-0.0515683073222381,0.024240408139551,9.4480003918976,-0.753754825741886,-2.49686583875701,-0.11510512310405,-0.109703657980854,0.0383402726288883,9.08029965106445,0.567784423768468,-3.33007413754212,0.0441964109287687,0.0038635514290477,-0.0393550452205674,9.99876605992244,0.883348973665549,-0.386874974974584,STAND
1.74,0.255543935665471,-0.0519255878420515,0.0332236248856966,9.42280545741362,-0.375579055081305,-2.57202965117725,-0.128064891495896,-0.11398672234335,0.0522296784093729,9.00822324956204,0.2508209181038,-3.37051775142127,0.0141218858812207,0.0130913734390976,-0.0466045759023127,9.92348525390707,0.820560888845022,-0.391985200835842,STAND
1.75,0.262131525523383,-0.058828114224266,0.0381369758332227,9.47987453589722,-0.0935840050489885,-2.56635876507842,-0.1296731452815,-0.103434367759799,0.0466449962875396,9.10491895850992,0.221587717568826,-3.47677774292315,-0.0159539062552345,0.022311778851455,-0.0538565458477983,9.86473309328646,0.785728235688647,-0.409384203603259,STAND
1.76,0.254378436118009,-0.0521552381065472,0.0389373945565207,9.46077736317301,0.322971776573647,-2.72731954270723,-0.116627126103385,-0.0727612030586881,0.0405801186863443,9.15774309582417,0.0482647911527097,-3.37481658641353,-0.0280973342803034,0.036591024524063,-0.0594820290838032,9.8752368428141,0.827730794773748,-0.452561629860049,STAND
1.77,0.219688390050489,-0.0429356412833818,0.0308236787152819,9.3519679270642,0.730256290923086,-2.71138648776549,-0.0919894589696291,-0.051839688594247,0.0257734761977018,9.21343698425767,-0.176277172911203,-3.36421982028818,-0.012975740162986,0.0415196240723225,-0.0644524992604851,9.85182197499139,0.872005070040338,-0.488472210935623,STAND
1.78,0.158343625443484,-0.0285653914901411,0.013476749124597,9.31371358247712,0.860305099121529,-2.68120270906657,-0.0530454385009047,-0.0383962130679887,0.0186457614082519,9.30340111403478,-0.354585497541288,-3.30689052010954,0.0125706119194565,0.0381587658119803,-0.0647994608716696,9.94366992955862,0.916590618833302,-0.471595592767009,STAND
1.79,0.127732197132979,-0.0170740288772799,-0.0032798002217226,9.33368738897196,0.689262750626916,-2.79278778178772,-0.0013341506222251,-0.0434655059409282,0.0108852932828739,9.40933800801372,-0.446548996931923,-3.27123808298131,0.0338976063266171,0.0398130893378615,-0.0556286564918054,9.99569487286719,0.835723918811072,-0.446512058188979,STAND
1.8,0.0817753072202621,-0.0214183101272028,-0.0108345086530913,9.3136787880475,0.332228360597618,-2.64839256726788,0.0567205744245301,-0.0361964233727959,0.005424725437711,9.41313788346607,-0.217041576798709,-3.35689503733884,0.0341211440285279,0.0513031441442054,-0.0462692909586853,9.9834031658463,0.724672084111471,-0.381536788581795,STAND
1.81,0.0363889219567232,-0.0264911752058929,-0.0033962842686865,9.35198228082969,0.167914043567761,-2.54537922279679,0.106059026868574,-0.0201838697825272,0.0023016740319699,9.30329775300534,0.0112578155644624,-3.25218057303361,0.0098325083762932,0.062742574393298,-0.0275033510874574,9.91534037921588,0.595790156381598,-0.328451435799662,STAND
1.82,0.0104328953576358,-0.0331007515312571,-0.0006553151970439,9.38923177431459,-0.0303253571704589,-2.44487373936491,0.119947202200617,-0.0276489078310572,0.0020668319006743,9.22890812876182,0.365031756378039,-2.92207827935298,-0.0241903478615208,0.084635638404559,-0.0129119443492511,9.83523694680723,0.539629392130235,-0.359876625757156,STAND
1.83,0.0089355951014028,-0.0281831721607507,0.0133289344954096,9.46711436948905,-0.0958576389623202,-2.27754315426636,0.112262127115057,-0.029743029034411,0.0040853415589449,9.19083573385419,0.671797460111837,-2.86063983159781,-0.0447621332311444,0.0956232487200851,0.0069660304402277,9.74568733590257,0.525186158934881,-0.357908217881023,STAND
1.84,0.0255344062586048,-0.0228890824229366,0.0214634323694523,9.67356876921053,-0.0899282533004897,-2.22552824559928,0.0824801583312397,-0.0414413115955109,0.0051784844781112,9.25701089508733,0.694186786323169,-2.71740446038069,-0.0453398877085849,0.112498503711804,0.0098421210121248,9.74509597507687,0.580678607685115,-0.368076928558004,STAND
1.85,0.066633678022485,-0.0132125608335809,0.0185693623106913,9.75218226118994,0.0985081445478999,-2.28214815069018,0.0330892079041205,-0.0454387586300916,0.0088667494981455,9.53400297286632,0.582519715951313,-2.76499216560563,-0.0431042622245333,0.123807360714881,-0.00072409573263,9.72158423548605,0.619944211324922,-0.305024125087446,STAND
1.86,0.101972409109041,0.0064374435173744,0.017015906558897,9.73346424593397,0.163567342092577,-2.26541245951759,-0.0037949685405506,-0.0277274358484032,0.0225133538261267,9.61352028586524,0.456931419618856,-2.82022771751104,-0.0390153865861821,0.121590959888706,-0.0042422643839544,9.80294465937469,0.62225567065151,-0.233120561371463,STAND
1.87,0.0958274451799192,0.0035613063264864,0.0141774383983579,9.61625895205455,0.232600710052174,-2.26738541132748,-0.0127306248072182,-0.0021611635792162,0.0223153958457398,9.58997189664821,0.264808733116508,-2.80617202403648,-0.0345181268969344,0.118581768624098,-0.0111485806759971,9.78888973094919,0.619335229103316,-0.201677021475006,STAND
1.88,0.0829929063224305,0.0056603354471635,0.0158433092574457,9.53043463229906,0.352641025226825,-2.26489390845313,-0.0071356538149515,0.0138185548828752,0.0294204149889973,9.47829491504582,0.190616014731216,-2.81882147924567,-0.0365373100755106,0.103538197383853,-0.0077911203283242,9.72784005903313,0.613015855191015,-0.237065707460989,STAND
1.89,0.104449951884172,-0.0131159388045317,0.0131216873493055,9.43989133621646,0.62882066872895,-2.26909446637843,-0.0336981996037803,0.0209023138355355,0.0242196581998548,9.39056461975246,0.120440079756418,-2.82567193953323,-0.0367253359342143,0.079716294117378,0.0008543348598755,9.65087263676864,0.633666704372433,-0.373032500902558,STAND
1.9,0.100743278093389,-0.0264471939717834,0.0190665915885571,9.42894894585821,0.735166642466189,-2.37924724202486,-0.0590206548843016,0.0072408805374851,0.0266610070124931,9.2878638481854,0.285398996177001,-2.94365903712049,-0.0308751140623603,0.0639497662029873,0.0043447688160514,9.60568599520487,0.709742049090544,-0.446079746330936,STAND
1.91,0.074142288198448,-0.0369241002210769,0.0170309424448075,9.47301473659315,0.768321692909828,-2.44911134088249,-0.0329308819194634,0.0043674525416869,0.0327876034949037,9.27760549158444,0.262621712869925,-2.87372700810162,-0.0279012589500976,0.0565606162889995,0.006734477136647,9.56516907813029,0.721487863977803,-0.375690915012588,STAND
1.92,0.0253513535863636,-0.0309781812938602,0.0204333792607493,9.50717724077867,0.625421619839165,-2.44415252900109,-0.0299598185449149,-0.0041571099732304,0.0328547496360418,9.34953375776871,0.152667957844192,-2.89601703062217,-0.0272935818697797,0.0491996825838972,0.010656879368597,9.61155394143139,0.699418282169824,-0.401951110427103,STAND
1.93,-0.0140102055325385,-0.0256740730810762,0.0226082090421764,9.50470703571768,0.487655758826928,-2.49663711394464,-0.0277426533220112,-0.0306536240482377,0.0351959085374207,9.3012488884818,0.219313710235476,-3.0901095974136,-0.0325097551989314,0.0490658899724432,0.0158343640902539,9.58559849359684,0.633190086774768,-0.429222289027069,STAND
1.94,-0.0464944691737212,-0.0191147491326116,0.0309647444525459,9.47513710923927,0.210119772801225,-2.50087062359184,-0.0141881106205587,-0.0267189052480874,0.039370247804418,9.25373775415562,0.297859494010031,-3.04883304352829,-0.0363235712318487,0.0523213061767069,0.0104141985472668,9.62814013849078,0.588488698078391,-0.370554234936707,STAND
1.95,-0.0628634493019331,-0.0084997879382726,0.0421161644906426,9.48003723797812,0.219578473935329,-2.40220161122364,0.0096009608469844,-0.0223141616615147,0.0390861808741764,9.35531564628265,0.246888917202362,-2.89533745561267,-0.0324811131616232,0.0490726629514741,0.0158487454044617,9.72594732371424,0.535453498974381,-0.39555319156042,STAND
1.96,-0.0543108572709175,-0.0236642068557366,0.0486444069031715,9.45810135248921,0.115548332868851,-2.4385815760945,0.0115131705241484,-0.0079925481430988,0.040012164296642,9.40640880888927,0.159683631127191,-2.83723882698432,-0.0176358637128522,0.0425128461054548,0.0118489032407296,9.8281703951819,0.529287446765976,-0.408486327357799,STAND
1.97,-0.0570151222620027,-0.040006334183865,0.0636782449643504,9.48025569723848,0.180578818346205,-2.4506236722293,0.0084598053106127,0.0029383395017411,0.0384603770310654,9.40985662188343,0.184112590276131,-2.75073998317287,-0.0161048344960626,0.0440610608540514,0.0170982917798341,9.8295699973259,0.496355714198651,-0.286233098906156,TURN_L
1.98,-0.0808624154802496,-0.0400282621466556,0.0623474406368524,9.59463261941668,0.261651602913389,-2.49992956223999,0.022730797205906,0.022135557687427,0.0438114537257225,9.48535601356506,0.0789637485390752,-2.79512876788343,-0.0201942422907471,0.0443600793455998,0.0078088587993393,9.82754697978039,0.471693012735176,-0.288072472423337,TURN_L
1.99,-0.0930432345565225,-0.0300148865291914,0.0627577604492528,9.57774299327717,0.26254409097855,-2.57434140985733,0.0242198904172078,0.0286724635270539,0.0451316010561338,9.34626975988586,0.0894456930279065,-2.86092524060641,-0.0059799932177966,0.0499002742657552,0.0084517699666307,9.82330144516367,0.423953274558628,-0.295937381105703,TURN_L
2,-0.087257392363194,-0.0318356879533479,0.0623505752094702,9.46348130247779,0.0149643765991958,-2.48401678912414,0.0356011460375536,0.0185803691170196,0.0383994541226447,9.40750668584276,0.0529560414799319,-2.88509291355643,0.0025379528082455,0.050370028816172,0.0078183814774461,9.80047114989956,0.350024808791898,-0.19920682278814,TURN_L
2.01,-0.0945589156529922,-0.0402460980691356,0.0665990128564082,9.48502541570172,-0.0810528348046608,-2.40680714523384,0.0620956429787153,0.0216365426370773,0.0336910605348151,9.56589276256979,-0.0293800830259451,-2.85711845880856,0.0037614304378134,0.052743479878052,0.0062009134058449,9.75726881144059,0.337909101656827,-0.136228778177107,TURN_L
2.02,-0.0684677959398897,-0.0371646109821447,0.0658585443632825,9.59113230265707,-0.174856308334147,-2.42442865565213,0.0807040807869183,0.0196300596127962,0.0363916653471113,9.47276648178728,0.0180754203504576,-2.93069983392652,0.0095918911491709,0.0550182457719872,0.0117825239694514,9.71606202757299,0.324457662992283,-0.164399133859242,TURN_L
2.03,-0.0223464083309096,-0.0298804946356389,0.0555797968122138,9.57694479628371,-0.232526707195352,-2.4032960537133,0.0928429677885346,0.0076957342082121,0.0353221145815718,9.4040624293257,0.157509830072949,-2.94720713644281,0.021269352653663,0.0586160418578662,0.0113958877101848,9.65325306674181,0.317368043561553,-0.114612095100654,TURN_L
2.04,0.026753509243124,-0.0040526662279934,0.0471032959303455,9.53759801402796,0.024443277973018,-2.41954990529524,0.100263660556283,0.0031429454731816,0.0179130210534963,9.50821807715072,0.239604538691832,-2.90427120569801,0.0426805522413814,0.0650514210664044,0.0087663130342,9.67794625544003,0.301647135260579,-0.0622792199366095,TURN_L
2.05,0.0388502386032523,0.0055585359742241,0.0333911536163274,9.4795976882751,0.123015104242147,-2.37393331560064,0.106033408791153,0.0124884317042266,0.0176255828869521,9.52118714226177,0.336663996791492,-2.79360696450159,0.0551180641496568,0.063255083279762,0.0148779503509805,9.65627662027118,0.30716857441941,0.0214928014971832,TURN_L
2.06,0.0424272654932507,0.0223445708756815,0.0253489251756813,9.60447069978563,0.252205716195286,-2.35838058427759,0.107686239611413,0.0003935469645471,0.0110272595322551,9.41020522963748,0.252758562088071,-2.67980093708076,0.0638666286155753,0.0619198386303736,0.0198529151215033,9.65570488371542,0.361719924309011,0.0069596329489759,TURN_L
2.07,0.071312863159418,0.0221201552328877,0.0228815215399139,9.51846579571359,0.464964893337802,-2.44722411909633,0.0935206836093773,-0.0065075027757661,0.0042584120139416,9.41044145348662,0.13012552503676,-2.71617762293115,0.0854012397595929,0.0494405844770865,0.0322767335136407,9.68761044874263,0.334012471574953,0.0001975654122082,TURN_L
2.08,0.0661452590443824,0.0198234505970052,0.0402168396488284,9.5486399060441,0.673202082245873,-2.26206998404585,0.096297304499868,-0.0102433729060662,0.0013697622085249,9.42222526893976,0.0959119717436518,-2.87922933721608,0.116882268575081,0.0417803712171612,0.0450647222101575,9.75649270425726,0.245697388528271,-0.0839808804851496,TURN_L
2.09,0.016609594269768,0.0176630976649266,0.0620331987604843,9.54659915654177,0.725086632637953,-2.35636779451595,0.139686132908989,0.0010189880852865,-0.0043175196844247,9.52388662119791,0.121064813790833,-2.90718628087444,0.141570067540622,0.0409862268102715,0.0633173616067057,9.83753519922734,0.160848212068205,-0.0963424658799658,TURN_L
2.1,-0.0493312762793526,0.0361315551659186,0.0731960678445444,9.61359727008856,0.365757409082265,-2.56840487260129,0.180088438666376,0.0328117697671529,-0.0095694655446879,9.44855419644825,0.129249130703317,-2.9137838613803,0.158458256235421,0.0494804740544209,0.0766620614115844,9.88449048875056,0.0760578073879658,-0.102473415571004,TURN_L
2.11,-0.1047442782195,0.0786953890412899,0.0798973218115501,9.74348707437615,0.0735490795454888,-2.77038085092766,0.194033329141329,0.0445099440221751,-0.0056223531462271,9.25906191644014,0.125168484226357,-2.96520488143716,0.172759706220272,0.0475017490075627,0.0937131081787621,9.93342053613702,0.0438715462723429,-0.220032957357369,TURN_L
2.12,-0.0896457207313282,0.0933049741149428,0.0785914162972876,9.6292673551192,-0.0221099847211398,-2.9008764289559,0.200824662912641,0.0526095635060291,-0.0040862763533909,9.1457233156652,0.108169075372572,-3.00774950743063,0.194069731946246,0.05675569775254,0.107444137518184,9.93584500521276,0.0570203514414833,-0.208859088207656,TURN_L
2.13,-0.0548674475585338,0.101285286300098,0.0671724085493821,9.49820952982257,-0.328264543313413,-2.69063836748237,0.212770150149579,0.0809447230956051,0.0054243311539027,9.13726874427272,0.0585969654229677,-3.04176241113863,0.20054619024757,0.0658432127681991,0.103715690562456,9.94088004650992,0.0372116360769124,-0.169868382612079,TURN_L
2.14,-0.0801987277572841,0.099168050056936,0.05753228409105,9.46052222263336,-0.687446692306777,-2.78989642089109,0.247203310793763,0.091076916692676,0.0022668769583106,9.1631409864122,-0.154445337958548,-3.11537273087142,0.206036133886181,0.0697637524570503,0.0956568813370456,9.96045216188512,0.0215646161549185,-0.149427689852863,TURN_L
2.15,-0.0448875404932042,0.110439174999801,0.0549735079477851,9.39836438974292,-0.863493748788366,-3.02095547946502,0.266274228051108,0.104071360182907,0.0084718837027593,9.17936005180024,-0.298818398427634,-3.06572055379216,0.216294108706787,0.0773455938407087,0.0815372359409042,10.0019938336762,-0.0866161968125711,-0.0662467342963524,TURN_L
2.16,0.0213890830832016,0.113796337870693,0.0606839640626057,9.43078141312468,-0.662082587061362,-3.01032783220726,0.271913042713596,0.0987295538805739,0.0115408816265119,9.19644499568954,-0.257815435532807,-3.03921999274318,0.231655456378222,0.0754733776162308,0.0657869877361208,9.99685493363536,-0.114894022851992,0.0269860073333801,TURN_L
2.17,0.0832892175712444,0.106025654617108,0.0649803674695429,9.58606098189462,-0.333546841481941,-2.94189282235874,0.292706991472427,0.102230175050894,0.0078204550615789,9.20749959669509,-0.164100046755892,-3.02477180115994,0.252338725043042,0.0736595325299286,0.0449315249419893,10.0355358062415,-0.131048032746156,0.0624164015413099,TURN_L
2.18,0.159463861859391,0.133560727551663,0.0553926015815828,9.81472492720965,-0.181946933510999,-2.89258217196482,0.312741490129817,0.102445525203399,0.0035541741454292,9.1731044580391,0.0831870557657053,-3.15481414873794,0.282904288629928,0.0794655728648132,0.0304343788890071,10.0647582715399,-0.239718113857607,0.075165983613459,TURN_L
2.19,0.204664127455272,0.149794528162827,0.0335531594951304,9.85760611929117,-0.378660632197489,-2.67445515589667,0.30726096749456,0.0862123773982052,0.0069786841171268,9.10097369572793,0.386032240955374,-3.02174171468336,0.320662276583409,0.0878568398421458,0.0071369909804056,10.1590506295435,-0.347088828545217,0.169924064165651,TURN_L
2.2,0.241290859032883,0.202566075302429,0.0123649799900161,10.0231688636468,-0.418371283001258,-2.53447329959549,0.309056930758485,0.078884120357141,0.0058964405723767,9.07346056651573,0.541098407883735,-2.87338718226302,0.362460283093112,0.0956904906786031,-0.0251711560501091,10.2316143197825,-0.413782759131141,0.224977565424327,TURN_L
2.21,0.283105981365934,0.275300070696045,-0.030105094737361,9.85911777943263,-0.649713274012975,-2.36283193015856,0.292325169336275,0.0735358213841907,0.0017370418331348,9.1718847665279,0.186319131696669,-2.9447055672271,0.420786276799929,0.113736099894705,-0.0475236564652629,10.2222455494686,-0.448288081152253,0.193041565105563,TURN_L
2.22,0.316542592333924,0.319621696935817,-0.0621746604166602,9.77325625962275,-0.734117241089618,-2.34207555998316,0.296817505416274,0.0718057381968211,0.0016533575220128,9.08728111397094,-0.24809269655335,-3.16694013393219,0.482968066168435,0.148209093119197,-0.0761218472535091,10.098378708419,-0.508698064025924,0.227016227976842,TURN_L
2.23,0.379751797278998,0.35357269483295,-0.0966764834373583,9.85910064794887,-0.457662963750132,-2.3730821540689,0.331094031758648,0.088886843024699,0.0044743205510795,9.10836741216039,-0.319049564851975,-3.32484335789874,0.551535957103059,0.193814130421171,-0.0935024370062823,10.0528729607211,-0.670712646911513,0.248240508141933,TURN_L
2.24,0.46634638338808,0.389396414868071,-0.139849126945308,9.75050467223418,-0.663012743879779,-2.62105512450633,0.393047640047973,0.103502233410686,-0.0057355565508664,9.12680894404226,-0.433166075725238,-3.18547978266631,0.617756655610859,0.220668163032076,-0.101957523843068,9.94618376249852,-0.755678416680025,0.300809350217416,TURN_L
2.25,0.505563489991942,0.413204998125141,-0.170205974993859,9.60491783851305,-1.0590503918281,-2.83259102004394,0.427978972279822,0.100448673777782,-0.0264466870774085,9.16697217426758,-0.57323739115608,-3.2516674687247,0.689645322414743,0.243217577228758,-0.103127545554243,9.92473139065402,-0.817459387703722,0.332924047241786,TURN_L
2.26,0.569579737052863,0.44413821674511,-0.188355982052167,9.59726123840704,-1.07415063699496,-3.25513731973491,0.449210788677254,0.111884413979828,-0.0318981357740193,9.14496856085513,-0.530305681410839,-3.2810915705256,0.767491608382514,0.269984239388412,-0.10185142296524,9.7923003908616,-0.803120615486903,0.292705611971395,TURN_L
2.27,0.680578754984154,0.482680840344938,-0.201796520006448,9.4814770175095,-1.35547746635986,-3.52032428893465,0.449526898902964,0.100558756906422,-0.0371435029076399,9.04760920832828,-0.506078015312877,-3.17526864114604,0.856376289035067,0.285830128547216,-0.0988212913981422,9.68775120602823,-0.753588538805102,0.311704883013683,TURN_L
2.28,0.792649974703205,0.470991543331065,-0.212602831619414,9.43665318183512,-1.45855040825817,-3.67117660673976,0.412147053502452,0.101372343730329,-0.0255545327258453,9.101056185295,-0.352736050847073,-3.29444330153087,0.941267948717549,0.28604960303675,-0.0913764916461048,9.60681420706296,-0.717266198562517,0.254470176306364,TURN_L
2.29,0.911888575630335,0.453878971681634,-0.232936560724586,9.38790998817117,-1.5020302256519,-3.53717725824846,0.286289657908452,0.181119416632657,-0.0005302793487547,9.34355475602785,-0.381355068299419,-3.19382136464708,1.03634829196078,0.262932894709247,-0.0968992621726158,9.63570815517257,-0.674193218037645,0.0957244372172454,TURN_L
2.3,1.01386704157697,0.437522423850536,-0.247590501214819,9.34856521385593,-1.78753136247836,-3.57215284045971,0.197124097886615,0.181920540104499,0.0270837718410956,9.10463428074651,0.0786766781122685,-3.10864939583465,1.13237137335276,0.248452927604685,-0.104604325197427,9.73475257364562,-0.609933393753756,0.0547890526809209,TURN_L
2.31,1.08825242881684,0.426062085141252,-0.266267655904375,9.32514022127658,-1.85188597470812,-3.58796637168933,0.0730088290271615,0.107254996150503,0.0128846507563401,9.08168312684411,0.732392924279978,-3.2529111381407,1.21197592933096,0.232165539618439,-0.129266441952999,10.0891626362469,-0.475206194250521,0.0645090825591858,TURN_L
2.32,1.15323344944308,0.419468726619803,-0.279812825369738,9.51524142214861,-1.51887413484389,-3.18932519831942,0.0351176328262313,0.0280764375820886,-0.0172050960735646,8.80638113171896,0.545060705452913,-2.98204697873502,1.29113823256675,0.227341533758202,-0.146271213122339,10.4279942942639,-0.370513081053169,-0.0365197340602886,TURN_L
2.33,1.22452600089905,0.417648228889179,-0.292645305375419,9.79773262307851,-1.42139888863402,-2.80581812054044,0.0257648349520366,0.0290600200916182,-0.0349415442314686,9.28095478273786,-0.16473264459745,-2.85832708852973,1.36267498384531,0.250213351141155,-0.170006197761503,10.6719486084661,-0.321323405961561,-0.0291568799113248,TURN_L
2.34,1.23305445682328,0.444864205547011,-0.315028979544494,9.98338592570302,-1.29295422342635,-2.39029684247468,-0.0470562336732658,0.0380464444942696,-0.0606525137540345,9.35986075610005,-1.0390399344772,-3.47594774869209,1.41400731491673,0.305770817520415,-0.195854313068585,10.8570436014699,-0.441130163294652,0.0205320984882971,TURN_L
2.35,1.22349243534656,0.509888439302596,-0.331628608509053,10.0489837042842,-0.995435930228917,-2.30830405712426,0.0639267585883269,0.104736878835001,-0.0853760534729709,9.49332771824436,-1.03147447871735,-3.72586673246168,1.42878476030852,0.343668552334984,-0.237823568508722,10.935824144067,-0.656132360187916,0.429629825855413,TURN_L
2.36,1.25120461564167,0.591145537138414,-0.343911520986624,9.98793382993585,-0.908914366086814,-2.34173980513439,0.322191019914371,0.226306051264817,-0.102827912512964,9.24783764458196,-1.21904906927076,-3.79549750290281,1.40837817600339,0.360027442247087,-0.270290578296144,10.8157965108384,-0.8065030476247,0.437377907938525,TURN_L
2.37,1.27741843500609,0.647324279179967,-0.343812975695168,9.92297205817506,-1.00557165369198,-2.47148582100993,0.565451468279387,0.194968443736189,-0.166744009417037,9.20696476029005,-1.88371422456369,-3.82588712274666,1.4590132197008,0.281812736366948,-0.290509139869507,10.4223049984085,-0.848974127472952,-0.0931590488506951,TURN_L
2.38,1.2722021224748,0.685792177644545,-0.321814686991498,10.007974159251,-0.972542158942236,-2.42871261599633,0.760939418279338,0.156766658468107,-0.205927865542086,9.42925575194854,-2.06693123965861,-3.69620421012693,1.54623264823705,0.190405500374971,-0.288127878937772,10.1463660368796,-0.790766588133159,-0.253482874919846,TURN_L
2.39,1.23508355306661,0.691163101276556,-0.289469770322508,10.0979409089629,-0.968579298979467,-2.48045407328442,0.939864656157316,0.125548235719602,-0.217927978922209,9.37596401333937,-1.25278625308829,-3.83305860304303,1.63773231018115,0.128130234844461,-0.270452033386099,9.7474600296734,-0.52722663416786,-1.28710765609569,TURN_L
2.4,1.19042734176698,0.685162877647726,-0.254991936914515,10.1660388111069,-0.92268090903551,-2.58373068192903,1.13124939351979,0.102920010439093,-0.22207150521403,9.38116905573934,-0.177959074007588,-3.21328357854254,1.87183587135864,0.220591205870046,-0.250510917119669,9.36000721377637,-0.0314586349535738,-1.47106866868952,TURN_L
2.41,1.15730439780926,0.645257210643424,-0.206227528729258,10.0741121218,-1.1766276499332,-2.53530752914639,1.21387512474365,0.137752129387027,-0.203598347604082,9.22945030274959,0.249947767187962,-2.51396988159149,1.98252912773463,0.36076431329225,-0.234502699098935,9.29346143641552,0.430770011712957,-1.17278847938686,TURN_L
2.42,1.11623903338754,0.595327482127045,-0.158195363323519,9.98186228679993,-1.4872447072111,-2.36436087161493,1.2279321758475,0.0586368844595399,-0.225653359288927,9.41581137788037,-0.331893146292717,-1.89513497107293,2.05255214426199,0.464486957359948,-0.224741875830672,9.28336422044366,0.699566361606844,-1.07576473529133,TURN_L
2.43,1.12881111860406,0.544704511156615,-0.127064324035328,9.88700819658765,-1.66224476536242,-2.21360858462648,1.23586509491311,0.024952365510766,-0.265834448885256,10.1059493016683,-1.16679188502824,-1.8243574275616,2.11453610890807,0.495018459823029,-0.206794384083398,9.31968094161914,0.806177183992232,-0.705387612087158,TURN_L
2.44,1.23055810904202,0.500305490085343,-0.110806190758818,9.98752309022855,-1.78194445434694,-1.93437128400188,1.29592883543598,0.0397721032646632,-0.265203855613327,10.2750238327303,-1.4784565192045,-1.79912462169117,2.14880925751648,0.488880560592752,-0.192345551547694,9.44829020906234,0.808091801290366,-0.59952556035505,TURN_L
2.45,1.36268377853281,0.503419273832388,-0.0972582796672832,9.99922330396702,-1.93215087324398,-1.83698428098841,1.39572650153363,0.0680897986053111,-0.250537394544837,10.1990334578755,-1.19026411605707,-1.79905756884777,2.15481998387744,0.468322107388603,-0.184298440982513,9.73713643662191,0.769132381254441,-0.640743066451316,TURN_L
2.46,1.5570528712774,0.523080351475347,-0.099440799550525,9.88433949889655,-2.15495566066838,-1.64053150938586,1.46829819596426,0.102361931217245,-0.232816385187779,9.88352124102572,-0.62436321889926,-1.31121614661612,2.14194297925583,0.455133162832457,-0.172091875913006,9.73085791064291,0.829086194169984,-0.791136276635933,TURN_L
2.47,1.81213282511316,0.554825238355416,-0.119394389138402,9.74958987027064,-2.53223672672439,-1.50528738921433,1.48220611133111,0.111055500477368,-0.245710184110149,9.74417514848356,-0.51654690370923,-1.08127104875219,2.13953665486457,0.44066052504463,-0.161604860352655,9.56100538292714,0.882232749026788,-0.795980261464297,TURN_L
2.48,2.106337837745,0.600709571456298,-0.135432348531433,9.64624855969851,-2.64654438147862,-1.20906824044267,1.45434828442522,0.132848969242804,-0.270823156104979,9.76810762286744,-0.349642739183658,-1.09308482208104,2.12545423347765,0.41079907635395,-0.15553375349943,9.38771160868388,0.860856857752278,-0.796212250301023,TURN_L
2.49,2.34360119546515,0.628821801850158,-0.133485603518258,9.60262425284651,-2.41011022671592,-1.09136946735363,1.44805880246684,0.134920461665583,-0.291548892707186,9.6564472238885,-0.0898926684298271,-1.05094943191519,2.12545423347765,0.41079907635395,-0.15553375349943,9.38771160868388,0.860856857752278,-0.796212250301023,TURN_L
2.5,2.51648471242736,0.635627655398185,-0.124385154902585,9.69305234963773,-2.10645263569937,-1.25152481885634,1.43741235925719,0.134829943529457,-0.297258898872288,9.62907036367044,0.0420215022782183,-1.03419511753024,2.11537270563977,0.342194777841854,-0.157901923116962,9.17515871707614,0.770022842462988,-0.833505286415425,TURN_L
2.51,2.64931510013183,0.621360849396703,-0.116509043373374,9.64394823013393,-1.79934736042535,-1.71910270242582,1.38857190981752,0.123404454647974,-0.299284917262893,9.63539222865536,-0.268554090075973,-1.16270167533595,2.1162060538095,0.268522567800298,-0.150832138268945,9.10834849628133,0.604710271691832,-1.06007928843902,TURN_L
2.52,2.78807369488238,0.593533918521389,-0.11300506503098,9.37379260612399,-1.5847982662051,-2.22315896582348,1.29762209573031,0.101008874720872,-0.290860282218505,9.39429545874406,-0.444968427911311,-1.49848483672353,2.11739044836879,0.231414363205317,-0.1360220940253,9.10081783228037,0.565342088778884,-1.29088420909082,TURN_L
2.53,2.93652769520734,0.53223217454204,-0.112575447894428,8.93718623660162,-1.36232140500521,-2.72738192769541,1.29674862331681,0.0449905701303511,-0.300557039086801,9.16913798985947,-0.69993576762397,-1.6838369914519,2.12288008448632,0.220183394548852,-0.130687786190787,9.06657273899493,0.628109727674531,-1.47838145205192,TURN_L
2.54,3.06314895923762,0.495558001679804,-0.0920086278346004,8.72844638736563,-0.889416348519162,-3.0443310152032,1.34082414547314,-0.0086468339149876,-0.31349658182944,9.27614093759916,-1.10855489905274,-2.05683632434868,2.15913529268948,0.212036412957925,-0.103098738514455,9.05872719539092,0.805927272171438,-1.57988182149544,TURN_L
2.55,3.19082710633429,0.522937550378249,-0.0972621564802174,8.50824074950511,-0.293908365871078,-3.35250068247883,1.41487149790611,-0.0661538918883809,-0.34796995697175,9.27672657603502,-1.11841151217129,-2.29370827049334,2.21238574487154,0.202612478614225,-0.0779357267092145,9.16475048259358,1.17761949474374,-1.68283675155978,TURN_L
2.56,3.29421819032948,0.49459291356687,-0.110559077710324,8.1781912901569,0.326366089030006,-3.59785753900284,1.46699324851602,-0.106836622395683,-0.379817319954085,9.48238537484519,-1.26058162456469,-2.19694056260892,2.24898531473233,0.202791970465751,-0.0456190566269647,9.28906213822588,1.52052193391953,-1.70642026987385,TURN_L
2.57,3.31912690627921,0.386847262136765,-0.131108721839175,8.00991419945373,0.996118491781645,-3.83493018449971,1.54045861504308,-0.162568525187235,-0.430195475182482,9.98808949855337,-1.81154753365517,-1.96020908427941,2.27687582133174,0.215035602925016,-0.0141949911237618,9.42826490630553,1.82978981270108,-1.82726368665306,TURN_L
2.58,3.33525028113067,0.251117034883854,-0.157505825063225,8.05509424570079,1.68629263081614,-4.20315739985362,1.59894152662519,-0.0481971733661133,-0.423657937152044,10.0465441947072,-1.46824109121113,-2.36889117248455,2.27904704284341,0.233374826648439,0.0150678545074996,9.62096386860178,2.0587325305765,-1.6593710786922,TURN_L
2.59,3.34003108466183,0.0960147839194185,-0.16041793192382,8.22337539594419,2.32193991815586,-4.28281924281832,1.69029987244369,0.0451267596002562,-0.41042489328541,9.56706413990125,-0.828365434689634,-2.27078486642411,2.27760765818098,0.24797834075098,0.0421780666208773,9.70919049933888,2.26555251243011,-1.44928150225997,TURN_L
2.6,3.23223329490395,-0.0249516542237473,-0.150784081332862,8.18906797810361,2.18481851037807,-4.11468409533288,1.80968091883592,0.0789768525914503,-0.433229028607056,9.64399962402139,-0.457474719066904,-2.11552075367743,2.27683972687932,0.267542012207034,0.0683247535370956,9.75644834966693,2.34689539919936,-1.1898125486979,TURN_L
2.61,3.10087319157877,-0.0709804651418541,-0.136029017467905,8.03058279859395,1.35613844576702,-3.93428865524484,1.83619314689317,0.124961315764375,-0.451989749915578,9.43897536622037,-0.0486899137974528,-1.89892083634656,2.2439538202943,0.255508482562294,0.0941092878177979,9.7110922555483,2.33409240876192,-1.05518294535889,TURN_L
2.62,2.99375849758994,-0.0263856501842625,-0.0938465325801742,8.02375064810415,0.88303637692848,-3.45280010270135,1.79328431721711,0.109531349286769,-0.461936867168051,9.30658348633639,-0.0842679408387139,-1.75738333390482,2.21195300376493,0.227792928394799,0.114497439940998,9.61105440215245,2.27653691979662,-1.03123554016182,TURN_L
2.63,2.84642159946185,0.0267520925832483,-0.0558540574325008,8.01521490323399,1.1373926714393,-2.78796558724393,1.70494067990672,0.0797197239003435,-0.479215559599165,9.36428784680892,-0.365732212543764,-2.17510074203105,2.18527218195974,0.201578208710178,0.145402138126946,9.51432351115682,2.28732338536458,-0.926580084172286,TURN_L
2.64,2.78981288798506,-0.0251754261596758,-0.0404027913381869,8.16335644043099,1.44216810464546,-2.60916537299995,1.68323713800179,0.014102475484284,-0.49006064045008,9.0916570179845,-0.411724376060102,-2.66058562982637,2.15812660301213,0.197854400851672,0.17069887423923,9.39818501506371,2.24510694086946,-0.931103802270333,TURN_L
2.65,2.82701156609157,-0.134078828111065,-0.0554426168551268,8.55042925739381,1.64638447470575,-2.42628159146399,1.73724845297168,-0.0513457703262465,-0.508116314139991,8.88679010932347,-0.68114087414549,-2.75224538886127,2.12881094669616,0.207431587293842,0.188005355281898,9.31792641076166,2.25917970580622,-0.729272367170119,TURN_L
2.66,2.86308374230179,-0.22504042385055,-0.0990251117471202,8.94459922300499,1.83594101980766,-2.39763404815615,1.79134171742693,-0.128178615064549,-0.55274498066221,8.96640849905049,-1.08390405768301,-2.66236767115644,2.10710497358345,0.190492294924185,0.203718312887235,9.2860951173401,2.21353317826758,-0.590155414249217,TURN_L
2.67,2.90413333519341,-0.264602070119796,-0.174141658753002,9.25115244561843,1.95894816785234,-2.24439856787911,1.75714666103162,-0.200763816693657,-0.61387088497802,9.34721110154497,-1.60257677162709,-2.71183901263766,2.11530566615573,0.178342146210643,0.214827653744593,9.31053795450567,2.17624321526007,-0.718197180955323,TURN_L
2.68,2.92134758682834,-0.278427884560687,-0.259917033854252,9.30128010950908,2.1785786975116,-1.86194061635552,1.69525377852153,-0.200013064226295,-0.632723749388669,9.83640990384474,-1.76226947416729,-2.95519408148903,2.11715064345927,0.187688128945462,0.233883425164816,9.38604116131392,2.11840724401313,-0.816601797059062,TURN_L
2.69,2.93570252795692,-0.315807475788175,-0.324663989038794,9.36225257958948,2.35335349061322,-1.47284836017735,1.72730401858501,-0.122062407321503,-0.594335627637968,9.58050828509646,-0.823349174304231,-3.30385316307367,2.09930325730014,0.18518645394618,0.239854361608348,9.49956088461589,1.99503369559966,-0.475454344326234,TURN_L
2.7,2.93653528638734,-0.323477628661148,-0.37534676495956,9.61915894901798,2.13245698237192,-1.09983445112907,1.7887247042284,-0.0927588883679761,-0.565595998802693,9.32853391957013,-0.26475110925828,-3.20424527336826,2.09527869752556,0.153085740144091,0.245409071006362,9.57125410755061,1.93754827077167,-0.442619542441668,TURN_L
2.71,2.90314802985402,-0.366078397820795,-0.406975844684047,9.62740351829889,1.76908390654705,-0.914005962175266,1.69669199986893,-0.056096308728745,-0.565125392002163,9.50090404184305,-0.778497791372442,-2.88520317822349,2.10322368127634,0.130947219298322,0.255341904797648,9.62756999454428,1.82743668972868,-0.607076130235907,TURN_L
2.72,2.82435609034905,-0.39977622700702,-0.402760999419359,9.71570310892571,1.46395101896305,-0.65963789988635,1.553998391625,-0.0344679366075082,-0.56965847216873,9.2953985175069,-0.671933338981116,-3.07432531053182,2.08787390964933,0.119304630448897,0.263140529234845,9.58527637221407,1.63617785542235,-0.556709585534046,TURN_L
2.73,2.70586920561555,-0.381162140483701,-0.37559960605539,9.73663669836681,1.03489239657891,-0.526066442882688,1.52330639224073,-0.0404112019133354,-0.562154715158156,9.17134825115252,-0.324353923472267,-2.90816991729971,2.04814878921848,0.117591693986805,0.26840311160216,9.55288535911994,1.67504147913853,-0.839420055732473,TURN_L
2.74,2.62706422238389,-0.372510414987883,-0.339392392092965,9.83146871632053,0.73496469663861,-0.330649603017842,1.47671148098783,-0.0066730040162495,-0.565294964222455,9.44745048506279,-0.644874610887933,-2.59288840530673,2.03847323861435,0.129849981275672,0.279830751008349,9.57748498628157,1.74680840099393,-1.13983049331576,TURN_L
2.75,2.57715184176246,-0.309251264200507,-0.321727079669065,9.78290658423849,0.785745722529728,0.0641658018231741,1.36656027522249,0.0289845187434641,-0.580696004796614,9.74118285413333,-1.40199214958718,-2.77003832439607,2.02738874554834,0.155174384446392,0.292939610149203,9.59020048414634,1.98231326703881,-1.20607617602498,TURN_L
2.76,2.56173958032249,-0.275878818658412,-0.309222662494244,9.72858049028428,1.15104303580195,0.395499674336889,1.37494418655518,0.0882403475556784,-0.569706796259891,9.6471405966607,-1.35766235816834,-2.98547491589163,2.00611237045298,0.195564772847371,0.311751599320534,9.57519129726413,2.25260254176842,-1.31376604217175,TURN_L
2.77,2.38168635869821,-0.224721520363232,-0.313258839982988,9.68881590108447,1.87388161971755,0.804827018150097,1.48163894431192,0.191369943452487,-0.534869715343383,9.32849616084643,-0.79792477516736,-2.81982136554278,1.98789388917701,0.224313121526344,0.322479539582115,9.59298164973755,2.58767347425144,-1.21080518844986,TURN_L
2.78,2.11227411645942,-0.244306207586416,-0.343589058276583,9.35043318815021,2.11957125546514,0.492769556385501,1.61118973926713,0.239949910298057,-0.549619637372823,9.08082496913376,-0.657957262225547,-2.57352816913165,1.94070790486007,0.255385085234321,0.326033322928748,9.56943977941791,2.91633763288298,-0.961018764624884,TURN_L
2.79,1.93149514664444,-0.409213733700066,-0.374231326652285,8.85986891899339,2.22927708432014,-0.598841691150799,1.63616501343359,0.309710248859723,-0.575521654347588,9.27103741485934,-0.424750086188798,-2.23689231568529,1.88245858867128,0.248627440058443,0.319742656758229,9.61513334546096,3.16802135438154,-0.832443505499633,TURN_L
2.8,1.76998018625521,-0.554695994696441,-0.391809982804214,8.50576227602241,2.43019628172613,-2.16474938894835,1.58935246265701,0.373513384468305,-0.572835516883656,9.22326301663676,0.0382652791240351,-1.90717209773035,1.79834139296525,0.239497351975562,0.311368245200999,9.49068516436596,3.46614700381309,-0.699306069552554,TURN_L
2.81,1.63306962651061,-0.671856972831292,-0.381708348676206,8.49485004025627,2.74588328263446,-3.48337756704624,1.49463307594583,0.310551250831682,-0.563476984285101,9.01700866066314,0.1349404323934,-2.17463627531409,1.68565387885343,0.215671720995373,0.278657858097157,9.2577333222673,3.70771239032903,-0.320528542030241,TURN_L
2.82,1.42196961481999,-0.678105366031729,-0.340168373091734,9.35906365545359,3.06911740028292,-3.62287326865211,1.40826816822109,0.194053389225546,-0.605827515456346,9.351400339696,-0.436031197630262,-2.68827691141034,1.58464399035458,0.177004304749259,0.239070478852275,9.25658440132919,3.80023949455513,-0.0299532801177323,TURN_L
2.83,1.10818088542631,-0.498906762576784,-0.307376888694399,10.660363623803,3.45524710375127,-2.56155437660179,1.38795333142841,0.11048936335596,-0.640280270882522,9.83075335430508,-1.26693127362912,-2.74167192845744,1.46008382145005,0.133354206857455,0.201309346143563,9.60645139148073,3.64972579439444,0.0929255319934697,TURN_L
2.84,0.849999793725223,-0.371468288554169,-0.295586034122685,12.0468180583094,4.01553806245097,-0.0589579660021398,1.4745389121506,0.0082403367476561,-0.635018830298476,10.0429057078864,-2.59726568485221,-2.41944248795901,1.35320821653462,0.122725883692838,0.191659789704698,9.98921273265121,3.3349193081581,0.724517372156693,TURN_L
2.85,0.619148955884664,-0.153155836325147,-0.311177770298139,14.1086131318131,5.2219286042674,4.31035390501978,1.62011571204393,-0.148933773186455,-0.635710209907246,10.2328156041363,-3.24180162129264,-2.40532351757091,1.24947316814546,0.095116996771629,0.167488448092369,10.4920010108877,2.76559580425936,1.01072748569487,TURN_L
2.86,0.262194387844282,0.0281620773377358,-0.359388087860612,14.2535391537241,5.49821702976259,6.49363415800206,1.7074668975952,-0.223870154894692,-0.668837899928029,10.2955591112738,-3.62746521566412,-2.06613962647387,1.23273052744196,0.0228893489639065,0.11390268846516,10.9703309482045,2.04032919290919,0.708893371813067,TURN_L
2.87,0.041071004262392,-0.183847393032737,-0.390102270540137,12.2635731143006,2.19691460859251,3.2597743016474,1.76860953578396,-0.241175984295834,-0.745996927664775,10.5063162137327,-3.53003587188639,-1.89500733344161,1.25159707767801,-0.008364289597716,0.0375791963757015,11.2487494887151,1.40104942291228,0.826606089459318,TURN_L
2.88,0.141638652139585,-0.453363697051338,-0.375841523410883,9.93543969406444,-0.504867769410261,-1.32331147132948,1.80348894578661,-0.155845151061245,-0.80249244635557,11.02551773682,-2.70772160257518,-2.11229391967518,1.27105427013026,-0.079145654127404,-0.0281845479241419,10.9638639933518,0.966632130316589,0.372436905202363,TURN_L
2.89,0.498310045210111,-0.475879327043844,-0.383432475589644,8.83270451045896,-0.511968632220233,-2.72687602381317,1.86342735796564,-0.0097510738520825,-0.83898158284178,11.284958173818,-1.42309491253302,-2.38651980521279,1.30658114505397,-0.156986593897979,-0.0566520026555425,10.0449624351262,0.837715921277153,-0.0668210213480411,TURN_L
2.9,0.677923564048188,-0.360512806563034,-0.461008871600725,8.76306201080168,-1.30746899607092,-1.03777186999265,2.06054147907387,0.260006497243913,-0.824271247162096,11.2169745338686,0.543179148071031,-2.33349394379791,1.31764557818033,-0.193637385251823,-0.0464032964062454,9.21062539478939,1.05798499864335,-0.301650573151271,TURN_L
2.91,0.731604994526261,-0.301185665218214,-0.553566808487634,8.67311429837909,-3.04698229233906,-0.395236783764519,2.16673924824342,0.593614077241781,-0.823224929749292,10.7363445048734,1.49370628476785,-1.78936452696941,1.30324023979508,-0.208985406916024,-0.0242079935589766,8.77320800456356,1.33513297926088,-0.442597994064567,TURN_L
2.92,1.04087820685014,-0.26638862206107,-0.585643289726254,8.67725751628157,-3.47993958952653,-0.789009193903485,2.26459890280369,0.673118056981889,-0.872045752952355,10.1360575083803,1.80784082521828,-0.669961820793406,1.2846474761508,-0.164986577577568,0.0123497012755039,8.7788538683108,1.57483067302102,-0.283831984756626,TURN_L
2.93,1.41078709875891,-0.222633805904866,-0.529702028850105,9.00422925049878,-2.47085043774972,-1.42927402822127,2.32473194048226,0.609842925033561,-0.92662499327018,9.92230012238314,1.9387549682,0.289040269157773,1.24483429221459,-0.103388115233401,0.0363192040057546,8.96404935429458,1.71223335879737,0.151559231308756,TURN_L
2.94,1.65913043819305,-0.194460755913336,-0.488790601523595,9.84709326183669,-1.24028478152464,-1.9702159600213,2.27174657509627,0.566610139558817,-0.969501606306792,9.9946768333208,1.55078825090193,0.744331928381568,1.19718967343821,-0.0515090208180236,0.0596867921228015,9.23831138121509,1.56125888121529,0.47220072820171,TURN_L
2.95,1.74745871754218,-0.170222733759149,-0.523619920879161,10.3413602720393,-0.620019388221147,-2.08569324365763,2.12118409803144,0.591396986456651,-1.01037130001473,10.3417517342545,0.916658727883112,0.762009671255544,1.16027440767781,-0.0264862662748555,0.0710134710438156,9.40912281567429,1.18195525348403,0.759142075900658,TURN_L
2.96,1.90060131383197,-0.118502510402611,-0.557217712459789,10.2474255274479,-0.494005325208053,-2.40729262781225,1.92109646086476,0.647712289966534,-1.01469206829108,10.4593147720846,0.25871849209569,0.425623096535382,1.10786647366807,-0.0108377768749395,0.0758336342736397,9.47936545033344,0.659384491347334,0.841570173644112,TURN_L
2.97,2.02120503544034,-0.148132832162247,-0.533577106999003,9.5492205618639,0.451494601357016,-2.34256137790084,1.76634112141265,0.695106599179388,-1.00681240135422,10.4668707250436,-0.2625314038575,0.0509320259908398,1.07904480945502,0.0260627973904016,0.0645349287259509,9.50082368290361,0.164651392960351,0.691778097752918,TURN_L
2.98,1.88806517675094,-0.174858773415483,-0.501843314709342,9.37952805143469,0.999559182999604,-1.73846195133083,1.67300451851684,0.808357282473292,-0.977322169950125,10.5160763032082,-0.402956072132709,-0.110657205570216,1.09777820262073,0.0774814241919766,0.0388699308933777,9.59288389747754,-0.111320243377679,0.549473003947198,TURN_L
2.99,1.77809598093883,-0.147393079749256,-0.481290832849368,9.56063097214037,1.91189087514657,-1.59431625996476,1.57136638406037,0.947210299703623,-0.898318321300477,10.5939560604545,-1.01701863845997,-0.119403470985276,1.14852006446493,0.135436201492106,0.0075288340805443,9.81930558461434,-0.196644739106727,0.456954516101668,TURN_L
3,1.71299563079154,-0.135488168074935,-0.443108911484044,10.221922986069,2.70127550532547,-2.31381765850324,1.48087946639418,1.07376639911343,-0.763848059161737,10.6910783937974,-1.98972486436396,-0.580031673273419,1.19159482665015,0.182174917259444,-0.024835889353955,10.0718003833088,-0.274336849328739,0.685676544612498,TURN_L
3.01,1.53884900981616,-0.0902098997447428,-0.423547420393537,10.5124463291049,3.30942866264334,-2.1226265357162,1.43351761019201,1.19023897710741,-0.583377450731601,10.5675099564975,-2.60613756204362,-1.47359045832873,1.21553797321216,0.210478809888214,-0.0529907106023862,10.2664195134975,-0.426756034471583,0.89795680859614,TURN_L
3.02,1.28178148389511,-0.0417757320458942,-0.422693407207655,10.3397586188137,3.9048519479518,-2.27870581952119,1.42664065458819,1.25175466859098,-0.407951042688657,10.6543954007883,-3.17584260348447,-2.54747716871364,1.21201305441643,0.22470629897494,-0.0651124675065776,10.3711918005525,-0.591361512602929,1.12305295226353,TURN_L
3.03,1.12241042075926,-0.0015065335817217,-0.448476805411139,9.65924711141995,4.05839763096051,-2.9976740673485,1.48130480609285,1.29010486900136,-0.28251718733586,10.4848666914113,-3.39579690132671,-3.77912304300785,1.18778085798758,0.222919214862138,-0.0552033402669408,10.2565223761943,-0.626337086876909,1.19354409416587,TURN_L
3.04,0.9866897425785,0.0062383588074848,-0.45147814112237,9.25882433741248,3.83745628905316,-3.26299473307623,1.62879441775118,1.33373010000475,-0.18445804148149,9.97047146541798,-3.33005537944686,-4.63124434812809,1.17215338447461,0.203968290221398,-0.035626833580181,10.2032965587291,-0.587909194619501,1.2251555369619,TURN_L
3.05,0.874105155109774,-0.040742753849499,-0.423022109502518,9.19922559881014,3.484656578279,-3.32797535259467,1.82779445764497,1.34611935553733,-0.113745166916785,9.60141581141247,-3.16075450702502,-5.26666239954554,1.14978497671081,0.180498715088103,-0.0143765079014555,10.1825801145053,-0.486329332808442,1.15260314289179,TURN_L
3.06,0.763197187134004,-0.0533920881220083,-0.391865474648255,9.21361184409891,2.53589394657707,-3.33582495815569,2.05394348421205,1.268962158297,-0.0785517582989432,9.40499459370763,-2.92470317139936,-5.61596595849672,1.11975044480016,0.168725140555221,0.0183044355703537,10.2809324169059,-0.316462360015419,0.990186208490419,TURN_L
3.07,0.611907279726422,-0.0506507574294659,-0.339980110783618,9.20079784673777,1.4430398085197,-3.19818970748987,2.32188916728791,1.10738984141188,-0.0719129784388319,9.34335254309078,-2.46634388488426,-5.53530776031402,1.06656455561838,0.155423132688061,0.0659902279666587,10.2658574009538,-0.154550366683746,0.914969047914821,TURN_L
3.08,0.567325419485903,-0.0197139635941386,-0.291702833706869,9.36464457388163,0.673569506672719,-3.36634539551944,2.58869961847581,0.990986504100384,-0.0671094451133402,9.50496235729401,-2.17504285868179,-5.04616356259875,1.01669781880119,0.127352129862515,0.12017048650807,10.262536579324,0.101794976252142,0.638312958814965,TURN_L
3.09,0.588743547220755,-0.0305436893318265,-0.251650683664537,9.3793844650281,0.642763276528529,-2.69329472506008,2.78318585429536,0.885739443457383,-0.037522320429988,9.57384448494648,-1.84013416084396,-4.81946623342583,0.99038908804675,0.101623105354227,0.156713111558895,10.2171241117891,0.322319909687818,0.417187242409231,TURN_L
3.1,0.604439072186308,-0.0539926628683611,-0.238481840141156,9.23832089052705,1.05900038341682,-2.72254582975688,2.8823604720318,0.780749165614643,-0.0133164411115492,9.82847303443176,-1.44308628859292,-4.87615449715737,0.979551567575185,0.114507090255972,0.168754836547591,10.2469276107289,0.62871846775277,0.370963015672322,TURN_L
3.11,0.584330422080876,-0.062118852879259,-0.242117121227496,9.44466929076571,2.03346069609832,-2.52988990837659,2.93385500721013,0.655362058918854,0.0151783223469762,10.001505551909,-1.06927906423363,-5.1653388598314,0.983094182321678,0.122407830742349,0.163610146590098,10.3810371717941,0.750632693956209,0.210712957356196,TURN_L
3.12,0.555767360340847,-0.0465193314640337,-0.261932009670214,9.7132172941185,2.11258623944608,-2.11065900638279,2.94515057394481,0.480715331599729,0.0534978914072184,9.95706795100025,-0.395550752644385,-5.69866276333674,0.994950511711094,0.119359928805726,0.152839938567303,10.3710588008694,0.650258185136331,0.103035830978525,TURN_L
3.13,0.552378030467084,-0.0124736503003438,-0.295477338080599,9.60461312964509,1.02751976895675,-2.0132734894637,2.93933848579698,0.334002439535709,0.08176126805004,9.50223915002482,0.168150706913403,-6.18678506568689,0.966039148840964,0.132709887508001,0.138990269635171,10.2795085321111,0.462124443151232,0.190302644006843,TURN_L
3.14,0.626483001497779,-0.0276416195318764,-0.31371063382575,9.41443262944648,0.505712042911732,-1.68402803198113,2.97752590281877,0.256868199227974,0.0775941838984112,8.92083796584932,0.784056449410461,-6.26869066210564,0.899121906093988,0.146531030172654,0.135122899247728,10.2225256625136,0.217206889684975,0.240364698648989,TURN_L
3.15,0.743678906412724,-0.0780522332772684,-0.314658824293953,9.49754053220077,0.694509970413014,-1.57103043735803,3.05987194377913,0.205777056427891,0.0197645611920556,8.79011666209957,1.47183197303852,-6.06253355954686,0.816671030071436,0.149321348519329,0.131157898837152,10.1834785362022,0.0210585192720677,0.314691846052568,TURN_L
3.16,0.810921550423783,-0.10420727862958,-0.304662678020184,9.47353679514795,0.784811386903538,-1.50671187366411,3.21466979970789,0.239109310167036,-0.0206357357899844,8.8552252429591,1.77810112452312,-5.86853157451819,0.730778979391864,0.160058348849471,0.131444723694491,10.0576328647504,-0.0031161548786842,0.489173052733953,TURN_L
3.17,0.823439065910607,-0.101306351532074,-0.275511088950057,9.64026323850824,1.53633953398544,-1.33333070208828,3.39471728609793,0.306275170885222,-0.05196212263709,8.62910082013401,2.19031723691832,-5.67604590250055,0.659180753234386,0.129947375473938,0.130112284035828,9.84356774909872,-0.0222093933181524,0.390617562751812,TURN_L
3.18,0.815217178999372,-0.0808484976969517,-0.253559666153375,9.89046345989327,1.70531494576181,-1.24995900453379,3.51528853318517,0.315308188681905,-0.080626062037649,8.36617856645685,3.10449715138143,-5.49188623946297,0.631651765721003,0.0855727645857367,0.138089427507575,9.67095803040395,0.0822389431133119,0.178897380138518,TURN_L
3.19,0.779096829959282,-0.0538558512175723,-0.232393443356976,9.98622891345249,1.74869187764834,-0.883083845523223,3.4723371703782,0.29577932291408,-0.113909887998646,8.29854933803601,4.27011153465338,-5.18004297547594,0.629604882599498,0.0631967590131275,0.140829004073513,9.48742444610377,0.220681513283823,0.0754397012619663,TURN_L
3.2,0.704404483974328,-0.0223769412712442,-0.210232303348651,9.89238307967158,1.60727671660738,-0.784816814827226,3.18859385438658,0.251466531170248,-0.130123518694398,8.27438497872494,5.30388385681905,-4.59765505018718,0.639453368613047,0.0406093473729472,0.141871718739573,9.37959139162186,0.275110170089791,-0.123480529923332,TURN_L
3.21,0.629873194600423,0.0222474763950989,-0.182134263280636,9.93883017577283,1.66177143369781,-0.995635713738143,2.69837908301282,0.130032976484798,-0.128989881349005,7.98605084892934,5.7891072545486,-3.67512743809571,0.645195383804648,0.0301907563574785,0.138909264963807,9.30737111458835,0.338193456520035,-0.187347330488803,TURN_L
3.22,0.607964615108273,0.0702897051683365,-0.165745077880157,10.1266730763453,1.20999817226527,-0.937687124361814,2.18067541066181,-0.0627147481686615,-0.128796539001533,7.54023508737963,6.11891667235658,-2.73024243659431,0.633415321027757,0.0314046659410472,0.135053809932615,9.26366344733546,0.417767001654148,-0.191869131940305,TURN_L
3.23,0.554327299991308,0.0865747816569425,-0.157707201600885,9.90739551860645,1.11214886312751,-0.74398054572063,1.74426636831489,-0.278259930905318,-0.133613299064046,7.31839376609554,6.31929870510151,-2.05604229791096,0.611991625335779,0.0323790706959655,0.129981500430556,9.30865569027386,0.385612331562411,-0.0102349240709738,TURN_L
3.24,0.519251095998412,0.0666485414527611,-0.140193373851756,9.6367951459648,1.32838494589314,-1.0981285400166,1.41114616909891,-0.48110318990392,-0.110384577019666,7.47575291294633,5.96257520543294,-1.63165249549806,0.570114371457129,0.028353951764878,0.144962084337814,9.40250630417158,0.301164512183515,0.164338282446567,TURN_L
3.25,0.483407058982818,-0.0138216961979762,-0.0870189900387056,9.30103673817162,1.87192066132747,-1.36504640921332,1.10500624892495,-0.606069806730038,-0.062053538562179,8.03728423285817,5.13798808777221,-1.36701132359052,0.514303866107696,0.0169150676809326,0.149280254797073,9.43838724027624,0.225562048519627,0.383642651093455,TURN_L
3.26,0.371113258754496,-0.0927384057511378,-0.0291242983857783,9.14711031725036,2.40575381314686,-1.60625905102681,0.869003791196758,-0.618655411039406,0.0383640276581063,8.71790244335201,3.91818480012762,-1.74753729282679,0.451956252441011,-0.0117561392319124,0.152840249953923,9.3733104618551,0.193240115236656,0.59727890065465,TURN_L
3.27,0.300889636639075,-0.117592116059126,-0.0016299932817592,9.08633814946145,2.65367922684548,-1.38886465299373,0.704075204391442,-0.531818356946193,0.16580393245299,9.12628563501515,2.67750038914217,-2.2110933057905,0.394566309838982,-0.0623039284962219,0.130315202078207,9.19273622548574,0.193773538214193,0.516640381706238,TURN_L
3.28,0.215926267760091,-0.11539658944947,0.0173839658154394,9.34046258138668,2.52395907838682,-1.08052148120887,0.513535408788906,-0.430171551469493,0.265748190891729,8.9649888595992,1.87547592301793,-2.59663766348134,0.369837026086608,-0.10179447226228,0.103273053958999,9.07663250090282,0.41105049277448,0.217035856061695,TURN_L
3.29,0.113867931935736,-0.0971166322137921,0.0433125716383893,9.66398936973117,2.09244027173481,-0.881449057838961,0.170051549715453,-0.443301143918545,0.295535331517144,8.5072027288299,1.7413433411582,-2.73057319131749,0.371974119181894,-0.126750436512628,0.0810583570970045,8.99430099607411,0.6112165449506,0.0412924788719379,TURN_L
3.3,0.0408229179566286,-0.0836736968862553,0.0489408189680968,9.82201728584136,1.46600492242679,-0.664630912743623,-0.260114293071056,-0.435213284914822,0.259644752593992,8.34157439862566,2.13020106495419,-2.42254448450616,0.375693532688609,-0.145257885621221,0.0662740300453953,8.92624869234702,0.746391043898211,-0.0246761925764603,TURN_L
3.31,-0.0123175915918849,-0.0681022414209038,0.0790717846853025,9.84995088340829,1.20850889462503,-0.638320066939699,-0.557489899679838,-0.412404174684726,0.176071680541273,8.16154021051575,2.57253988674994,-1.33535931434487,0.365075731222588,-0.142696040270416,0.0501228388778418,8.89764838796781,0.905358658637828,0.0210479822297362,TURN_L
3.32,-0.0462806386138807,-0.06117961796348,0.106011764445565,9.76745051064426,1.3702229764892,-0.754964542428103,-0.671176695119139,-0.480610238123307,0.0610220262823292,8.03909114247192,3.34968588937903,-0.835177240881271,0.343109035564622,-0.146493657389627,0.0386646831659392,8.90896631281498,1.02787131059932,0.138680544902801,TURN_L
3.33,-0.0720927061074764,-0.0699756774751325,0.130860632731951,9.6457483576415,1.92956248619369,-1.16742112451346,-0.699713482977294,-0.591728877174714,-0.0083734847410083,8.11387894396439,4.19869400312298,-1.01122607635461,0.290583894779335,-0.130650159369956,0.0287733364213136,9.08417481299892,1.06506180359114,0.285306295708887,TURN_L
3.34,-0.0720927061074764,-0.0699756774751325,0.130860632731951,9.6457483576415,1.92956248619369,-1.16742112451346,-0.666408106445087,-0.623263800929109,-0.057676377189999,9.20228178497055,4.81154420018346,-1.97142659126677,0.248450138594664,-0.0946401517509874,0.0203457969702093,9.43367487335332,1.165379767599,0.0688875438549625,TURN_L
3.35,-0.14633424540925,-0.0512045708363665,0.151189385604535,9.59020343547967,1.969918921488,-1.42463424089804,-0.568397807583662,-0.440046084233254,-0.048241907705272,10.5561472018288,5.03871069926784,-2.52656989082239,0.196588664208187,-0.10305403744463,0.0266793181584879,9.80654988843921,1.24523591768964,-0.0719712643203149,TURN_L
3.36,-0.246576411096984,-0.0427698604254565,0.168014689065696,9.55380364809613,2.03855939795894,-1.75230346569765,-0.626921289924418,-0.106490559305769,0.0355559268298462,10.6321233908553,4.28416284321837,-2.02503888538621,0.123735234513766,-0.0917553861482041,0.0373552759787957,10.0423957764758,1.21624605588595,-0.0298928679178483,TURN_L
3.37,-0.295426236504708,-0.0419105917862447,0.173039123596656,9.52302364726069,1.47661799058673,-1.96904054924288,-0.935340302665986,-0.0763260729917173,0.0976485807981685,8.87307501232514,2.8602541453372,-1.84371670405181,0.0307590393145697,-0.121620631744601,0.0570503374551876,10.238126902728,0.964661804391599,-0.0954304373578675,TURN_L
3.38,-0.34685625860739,-0.0705494649586279,0.191769536946058,9.41314337841695,0.763651438720473,-2.00021146345704,-1.35699481782974,-0.621579928597857,0.094478185304256,7.36932866819452,1.79201117985051,-3.00913158692223,-0.081834414692093,-0.14441850782489,0.0817623891982016,10.1957241839891,0.600552529131712,0.131704243944094,TURN_L
3.39,-0.351737570393795,-0.123567054471829,0.216862846197724,9.46313952251228,0.544898646121709,-2.03330237510526,-1.80521374418752,-1.08663037536189,0.114281611197188,7.57496760516592,0.771057374407937,-4.67670849453261,-0.195668745055999,-0.151933551071992,0.0961595500403172,10.1773063554648,0.120905807036422,0.0817177189748185,TURN_L
3.4,-0.339751835772018,-0.169143675735166,0.248533674209393,9.43301565820098,0.428987604626694,-2.07572005692804,-2.06490181779513,-1.10869864573309,0.203937328418026,8.91681254272751,-0.823468354023134,-4.78345303687416,-0.262027361055747,-0.163397665881383,0.0957727524046962,10.0673441137559,-0.149276078981406,0.0655349336093425,TURN_L
3.41,-0.299073331552327,-0.225398768163993,0.29651043743309,9.52080972228032,0.954459652865898,-2.1401367938443,-1.90334175563821,-0.888974722449133,0.302673987998353,9.70548250250962,-2.95894526551429,-3.21263552155974,-0.304896869127535,-0.168316402340531,0.0837624614732997,9.8852888401159,-0.418075784157875,0.0629183925659445,TURN_L
3.42,-0.30173695119414,-0.258087528072278,0.334022239999362,9.56604253587582,1.89050454366924,-2.28072796168275,-1.62753466596507,-0.806209994500014,0.348849625641132,9.62935683659001,-4.25715394766976,-2.21836360399729,-0.330087439040955,-0.166108388647172,0.0661322697561018,9.78783856779549,-0.559298314454906,0.176921826753971,TURN_L
3.43,-0.35346671583379,-0.242325828043859,0.340195040437594,9.58764177028392,2.46452829684,-2.25797879775012,-1.49295139677051,-0.878919626970409,0.329500832739001,9.47478785124719,-4.32720985099014,-2.01745422234367,-0.34086481053294,-0.171578390633909,0.0477359542478456,9.72478253921783,-0.520041560911461,0.13560242257247,TURN_L
3.44,-0.442917317339267,-0.179865271290679,0.321023321233839,9.37549730227144,2.36266163671215,-2.49299575518174,-1.50896831744893,-1.03711991516732,0.275043024913805,10.0402751606151,-4.13829518074778,-2.43896217739935,-0.315682510228314,-0.182119367854014,0.0328424325926553,9.7044770658762,-0.259878459330428,0.204502279700428,TURN_L
3.45,-0.582861740444277,-0.117070550158674,0.31025016160383,9.25278830019804,1.78608213747462,-2.71384371452609,-1.38252792305817,-1.10290368816289,0.234958592939064,11.0899727702215,-3.76337418387298,-2.81664335710138,-0.26606830762098,-0.204451755357725,0.0293583796782699,9.74760507218602,0.0911554419725,0.25377413060154,TURN_L
3.46,-0.690494228185934,-0.0856923713427524,0.292321051627819,9.23312053645774,1.10365117664394,-2.90556420557887,-0.996626538106299,-0.971604559431296,0.227232357320385,12.3356510019215,-2.86187878737486,-2.46908896677043,-0.217864812776636,-0.229734173207403,0.033602893660635,9.91087189376299,0.61090776716522,0.309859036318004,TURN_L
3.47,-0.723931268230023,-0.0871830411681575,0.265798590657874,9.27455117854199,-0.0143143304563768,-3.13457792871177,-0.619142547351867,-0.803731519022974,0.221999287062402,12.5370619947339,-1.15748011799858,-1.98298230705458,-0.196207045194148,-0.29432401721115,0.0374719625072999,10.2128676700596,1.31393015490889,0.376510148512983,TURN_L
3.48,-0.701819368598564,-0.116693533593671,0.224166410764236,9.34415176640913,-1.01010666379435,-3.22367800215084,-0.338514919572103,-0.64046912269463,0.184117444532034,12.1665362697341,1.27472691725613,-1.3723119494676,-0.163498087966362,-0.329797702350336,0.0371486597054794,10.5190462632682,1.89451434511546,-0.0490305006975887,TURN_L
3.49,-0.630721389054731,-0.149830229796411,0.19153450508945,9.32187708045465,-1.84026882679368,-3.19765654065313,-0.114296548922245,-0.409444407377348,0.110874774898518,11.5519290589569,3.1454227544089,-0.070842335582144,-0.145075327870346,-0.326011163603677,0.0507537482367415,10.73783895844,2.20047959394209,-0.227905628225653,TURN_L
3.5,-0.533445613576314,-0.171728873922517,0.165395948661504,9.39654753817741,-2.19809745921113,-3.13835913628844,-0.0026658791328452,-0.237205981479862,0.0148206239730011,10.6570164125473,3.77757869134784,0.784158231282091,-0.166397806674992,-0.257821609176915,0.0620017385899708,10.7294921910017,2.20378415169236,-0.153021356722018,TURN_L
3.51,-0.394135294258172,-0.192817304850811,0.155487661316903,9.45407153704137,-1.95277936608567,-2.89803310420727,-0.0850370759518668,-0.183734994889577,-0.0622071432708474,9.8949370529176,2.9129529317859,0.773862175843965,-0.237194139851285,-0.159223238211238,0.0796473228525761,10.538444308924,1.89124653409056,0.0823330344162358,TURN_L
3.52,-0.23774835426572,-0.194280419962536,0.157092865619784,9.46123469093083,-1.26761560175495,-2.9303028838656,-0.242357677036937,-0.184774189755767,-0.0836721044519409,9.71389597696561,0.671013941636699,0.486569754157428,-0.327322574906522,-0.0712158755277261,0.0844399785867026,10.218188000079,1.2480839543518,0.251832463646073,TURN_L
3.53,-0.0994770039490012,-0.194759492360073,0.163494669291599,9.5516632854705,-0.167352805718817,-2.71417854203205,-0.371258042636174,-0.228186712404269,-0.0554160152078427,9.76896824272416,-1.61849782642006,-0.353538352578362,-0.402925755562709,-0.0215213656599854,0.0685767095157317,9.88685755231039,0.498797593262279,0.42172652100306,TURN_L
3.54,0.0016725829334343,-0.211406306603762,0.150769531299361,9.50393115797828,0.735448594439133,-2.57008558554732,-0.388698355974455,-0.223469560756918,-0.0090591866099104,10.1046234936021,-2.32277473358232,-1.331911334563,-0.446401482443887,-0.0161774772093548,0.0412927113346408,9.57330504810221,-0.178157874731555,0.457814700800383,TURN_L
