time,left_angular_velocity_x,left_angular_velocity_y,left_angular_velocity_z,left_linear_acceleration_x,left_linear_acceleration_y,left_linear_acceleration_z,right_angular_velocity_x,right_angular_velocity_y,right_angular_velocity_z,right_linear_acceleration_x,right_linear_acceleration_y,right_linear_acceleration_z,pelvis_angular_velocity_x,pelvis_angular_velocity_y,pelvis_angular_velocity_z,pelvis_linear_acceleration_x,pelvis_linear_acceleration_y,pelvis_linear_acceleration_z,label
0.01,-0.0333283868016037,0.189171025785296,0.0837209855039604,9.4473489050986,-0.859287947359556,-2.33847746033458,0.0625947793916324,-0.0893068623306107,0.113146698892718,9.24866217800432,0.713532542788818,-3.28306263020967,0.0419162518940803,-0.0047291274680682,0.0201384883923865,9.7556921305396,0.666650442564518,0.475728228967404,WALK
0.02,-0.0132802739061737,0.221733045158088,0.077737107880633,9.41561460653478,-0.818490264376437,-2.28473464559041,0.0114330093653772,-0.0974617922832056,0.120724840286079,9.13684535993003,0.545690111139346,-3.28330412169186,0.041381472744405,-0.0003430790261998,0.0303413314921198,9.72184785963859,0.775705169941484,0.431071768862724,WALK
0.03,-0.0078446714458903,0.257299741561138,0.0739540678161099,9.43350601204326,-0.713707073476358,-2.0233226532871,-0.0364730693226296,-0.107126330520459,0.121795124706736,9.0876559836338,0.409191283327713,-3.38965776174208,0.0332213006342195,0.0052497858770179,0.0366067695556302,9.68330823946633,0.847065767309733,0.486562775979667,WALK
0.04,-0.0234821303215743,0.298556410820867,0.0764138124461388,9.53483315003191,-0.657859542720987,-1.94919393056294,-0.0328411707710358,-0.106805659706806,0.123688101418884,9.0632129887612,0.171381620258182,-3.42542690802775,0.0323979751727813,0.0159253017156935,0.0399459942716873,9.68358025489972,0.843518997609052,0.48731066003181,WALK
0.05,-0.0423704599149929,0.329989055448607,0.0797748642983505,9.6408449660957,-0.662978335221132,-2.05982860740952,0.0037209966901628,-0.105090611182102,0.130685022163858,9.07455804588947,0.223346511847993,-3.357886929349,0.0146738730414666,0.0273481963032935,0.0381470349605584,9.75920570838535,0.740844264056067,0.492210218559577,WALK
0.06,-0.048360222234269,0.350353649183968,0.0893540171839674,9.86758453442987,-0.613191971775188,-2.1189518093973,0.0360689046235873,-0.0871533919300039,0.135452628568461,8.87536730677649,0.238264074228874,-3.37444926887299,0.0178379576027733,0.0323455354669692,0.0301083836736857,9.79805027285155,0.663056201598822,0.439539731881663,WALK
0.07,-0.051013075322905,0.369936271779018,0.0954916737911931,10.1653788935984,-0.585747634498728,-2.17509227133424,0.0225382696127576,-0.0951770984859917,0.132682654490861,8.83338195607383,0.164397145149175,-3.45658302407543,0.0237749974956389,0.042114113576955,0.0285341720920134,9.95592918973765,0.559005343954883,0.485274968195488,WALK
0.08,-0.0546044668648771,0.382499231585022,0.0987781221510728,10.1770106175513,-0.579765479894649,-2.22383573686617,0.0142109825478809,-0.107162898315381,0.132643481386607,8.84791693437236,0.173698163097058,-3.53320641932276,0.0406201456463401,0.0636923299739549,0.0189121183930273,9.99824122863634,0.465527688083376,0.57839482941353,WALK
0.09,-0.0425968494983433,0.376688425970396,0.10059220261761,10.159681888823,-0.420602765752613,-2.27502514328552,0.032255491700672,-0.10746589392802,0.133602985365692,8.87302264524071,0.205944757714124,-3.73223618262039,0.066817373145618,0.100060053429498,0.0024190160065904,10.0917419240091,0.250149618536749,0.753162362824782,WALK
0.1,-0.0367225086756414,0.377223426745345,0.109595444488051,10.2376209190371,-0.452616385418234,-2.27121713401579,0.060643981095983,-0.11374447415825,0.134007264619443,9.03046896326157,0.157117057463346,-3.80792790615858,0.066817373145618,0.100060053429498,0.0024190160065904,10.0917419240091,0.250149618536749,0.753162362824782,WALK
0.11,-0.0577635063780814,0.378071351794851,0.123704773768968,10.27694156294,-0.527054973780705,-2.21425355547178,0.0727734226830511,-0.120152220703675,0.136752951798434,9.02388785191822,0.0541182477268081,-3.77679641035179,0.108526011921469,0.112010874138361,-0.025852275874037,10.1316663242671,0.213488320057454,0.914898731566355,WALK
0.12,-0.129600515418841,0.40325764223164,0.12932961835632,10.4424235613646,-0.602940342649581,-2.05187420492902,0.0993300771246533,-0.125573043960039,0.135958940638784,8.92229091021394,0.0252274645766757,-3.76460911251007,0.123670247025981,0.0947019953222654,-0.0457644648473113,10.2103245405151,0.266590658515923,1.07839539472906,WALK
0.13,-0.238595538633903,0.454812821042344,0.124721561777809,10.5607245292366,-0.663296484437525,-1.88553987454729,0.114505164522029,-0.13485430458669,0.131340050882031,8.80532322493849,0.0989811081670359,-3.93525842212482,0.120827060367459,0.0476354054313718,-0.0630201888054409,10.2538486495471,0.37245782792748,1.05807611149838,WALK
0.14,-0.349207111059042,0.5251150091311,0.107519887477759,10.5993666290409,-0.803770096553466,-1.57451682012436,0.099670875259871,-0.136775299418399,0.13070968710749,8.80057186051104,0.227104536629557,-4.04271225661784,0.160776189430865,0.0368503365074469,-0.075613913448677,10.2441729307994,0.428571118378058,0.63127662656445,WALK
0.15,-0.418525252920211,0.593815504491348,0.0875828525568867,10.6359411460346,-0.942880283791028,-1.25742024504332,0.104335819599177,-0.142186483239492,0.127133495455068,8.73752786318024,0.215693445210943,-3.9371313122851,0.211359483349619,0.0603371601000319,-0.0745047176984522,10.2134041303747,0.484808840428478,0.865396791498241,WALK
0.16,-0.446464938177966,0.654408022511035,0.0524242558569825,10.6755461666038,-1.06450254736435,-0.951861548500279,0.109088121681153,-0.13159145280017,0.135468899799709,8.90167045431717,0.0267134406837427,-3.6790496249731,0.225365643093943,0.0569083911827256,-0.0762074477839513,10.1096652144095,0.589828067498488,0.982116481353922,WALK
0.17,-0.43525430573485,0.714417024691703,0.0051377360848717,10.7487875942466,-0.92261759463215,-0.795111082215293,0.138909316740352,-0.118262081977141,0.130070096094121,9.0702898089723,-0.0953912563912501,-3.61726874895493,0.247398088240814,0.0591177982568404,-0.07325198765673,10.0391266257134,0.686613143107139,1.01354388786204,WALK
0.18,-0.377867380950832,0.755225776263807,-0.0479099729031841,11.0037676812143,-0.567344910265854,-0.328907231652213,0.164498524492245,-0.110750369207029,0.122973817202288,9.07422689623926,0.029833806626807,-3.669531391776,0.283505209586985,0.0432351984927797,-0.0631723124268353,9.95337292687293,0.766516901474507,0.834734760243699,WALK
0.19,-0.332785200824298,0.806928153747354,-0.113913685492278,11.113427086554,-0.36955230919731,0.400799709644527,0.153263345659644,-0.109212264468952,0.113548434591338,9.03519984423526,0.0283766747316825,-3.76255262692044,0.339135615071127,0.0512450757954913,-0.052475855020592,9.831067232344,0.960489133112102,0.853322711763737,WALK
0.2,-0.302010293842336,0.910216436035202,-0.200963729474816,10.9752890302931,-0.289116132611476,1.00689435267057,0.130819010247291,-0.104642221970758,0.0865735533129007,8.96035155020971,-0.0559648797761964,-3.6975045505754,0.375709376506956,0.0456103285767206,-0.0413459125779119,9.74965632040301,1.0477199504145,0.693624298544404,WALK
0.21,-0.236796508044742,0.954176781098318,-0.281218945792648,10.8380114706049,-0.037610154475862,1.43168996476236,0.145232712991812,-0.113649014646196,0.0641209426922699,8.81153314292008,-0.217345264877908,-3.74461469639058,0.42242790731213,0.0612698091200943,-0.0304354183030579,9.55584406721977,1.24513494784601,0.334032976718156,WALK
0.22,-0.16047407207654,1.00870025481949,-0.357207798721868,10.8100232010931,0.0769348888440866,1.36502866661346,0.167151084250798,-0.131992476647037,0.0265161866065735,8.8091495502689,-0.446610683496734,-3.92461831108939,0.500976353048922,0.100812871769443,-0.0202383939268031,9.2649027197359,1.47005875103941,0.115413279847441,WALK
0.23,-0.106734320301801,1.15752315236354,-0.421270409848609,11.0444490315153,0.212751978167068,1.27992032262218,0.17692936955742,-0.149418330037626,0.0008297188632011,8.91377632090707,-0.411129158133286,-4.06179857745931,0.559828947328713,0.133360908814623,0.000036929628512,9.14270728154333,1.70160271432359,-0.0019465376794616,WALK
0.24,-0.101047695151113,1.29463930748238,-0.469601873355403,10.5620465322494,0.264030123252216,1.19647227840652,0.175863252239001,-0.132522792256286,-0.0174557580607312,9.18314642534254,-0.47902713178411,-4.01523996389139,0.598035039784201,0.152778060663465,0.0230456126558184,9.16131381313397,1.98434403237485,-0.0357786271786898,WALK
0.25,-0.18751266175764,1.25090274787423,-0.473502002307006,10.2464648002907,-0.155389434505201,0.90662636328199,0.201929046864722,-0.118805551386495,-0.0262104760310567,9.45482472935488,-0.765615049731913,-3.97048300656105,0.593555572680055,0.186540536295417,0.044335565516153,9.07250597107782,2.17713303079845,-0.11678635136474,WALK
0.26,-0.305897617699978,1.23468401407643,-0.447821807537022,10.3452431843328,-0.565006934234312,0.27115443180116,0.235739949855219,-0.108183598703055,-0.013791903745585,9.5753103961311,-0.894593938117102,-3.88880114268011,0.568993295670197,0.226362355404166,0.0781755214751448,9.14488502211944,2.46519151576178,-0.138470461129062,WALK
0.27,-0.464604121267039,1.32923259132489,-0.43456319908182,10.1370746737701,-0.902661314840996,-0.83956924545799,0.256029342874227,-0.109005667733548,0.004696455697244,9.44152135752258,-0.811515357235916,-3.66724449452676,0.521090587778332,0.212821403447183,0.104757611502006,9.20369315837221,2.58753111921507,-0.0999343934567425,WALK
0.28,-0.577854725206323,1.40394012980486,-0.423015189586591,9.49745532142554,-1.14641468697512,-2.10592350586315,0.221235584336942,-0.102413894144812,0.022872514986334,9.21465330195202,-0.631601669676159,-3.47526967895317,0.436952195915869,0.199062280767398,0.123509101972816,9.32155463479934,2.6402724727616,-0.148546371762617,WALK
0.29,-0.582649728825025,1.40276577943502,-0.404259318872826,9.33220230982089,-1.29258555062123,-3.05244214093053,0.160689184575099,-0.0947437960216335,0.0230079292528878,9.13746936247059,-0.29122702063775,-3.39374220833696,0.333198762161423,0.176101699729156,0.123957022681658,9.45478824750324,2.6282981143103,-0.108664027821241,WALK
0.3,-0.545702366550951,1.39599939076846,-0.397550156209524,9.4354956372344,-1.34453466796103,-3.29217567268221,0.119312255218656,-0.0978918660997849,0.0318628704106539,9.11377979649427,0.0588389886434436,-3.13347682775335,0.218081162826462,0.175118667874847,0.118749078452698,9.62853624886933,2.58632471454466,0.0270181228971671,WALK
0.31,-0.498732469958705,1.31465908007517,-0.389476458219156,9.32121110724265,-1.56262319848372,-3.25175812430695,0.0524553035710521,-0.116067923332291,0.0254289991685887,9.0600644956086,0.0937342374334008,-3.01401359532406,0.120077408397868,0.157795693450546,0.0915101674724451,9.81813956283944,2.58355354397466,-0.0271779313044876,WALK
0.32,-0.385158322761368,1.16997246615244,-0.390609830071052,9.29066493637002,-2.02059814808764,-3.06396033676312,-0.0593934097527809,-0.152040066282702,0.0172934104172737,9.18902574826664,-0.132320989988111,-3.13527074724393,0.0540778297277696,0.159170468926882,0.0477659246792917,10.0577904122415,2.47932566846803,0.0813305847635387,WALK
0.33,-0.219272473328207,1.02138610960339,-0.378655943296591,9.18453796816708,-2.07460442568289,-2.88201934412497,-0.128120682425177,-0.175212763411121,0.0223512756263043,9.35454864734988,-0.466749138637868,-3.10031561233467,-0.0025725683776349,0.150218545072596,-0.0065077412973467,10.2214819532225,2.3478755630243,0.194394026497298,WALK
0.34,-0.0900628303657393,0.880467307123873,-0.368766311604261,8.91312109727267,-1.77380092727263,-2.7259632769563,-0.131965017530616,-0.179838778991049,0.0305017997685123,9.36598991097957,-0.72870954300106,-2.98834965113687,-0.0507904130150509,0.138043770911207,-0.0651951285374654,10.3167974105286,2.1649251676984,0.210343983635093,WALK
0.35,-0.0203975964523873,0.770011389083209,-0.369551825598304,8.71870570911685,-1.5050203275437,-2.53027692777451,-0.132636138486457,-0.17258732181094,0.0422130529383941,9.32075767064005,-0.759742538390588,-3.23180133032972,-0.062386874104929,0.122241252736673,-0.10935604262836,10.1520003960382,1.93271792899913,0.159861687220775,WALK
0.36,0.0231950793977694,0.65919491102649,-0.383368418117332,8.58604583097231,-1.20991828932553,-2.2745324376611,-0.15005488784926,-0.165352328534262,0.0421151197467133,9.20111168148384,-0.769921736030216,-3.32979955892544,-0.0617860053291997,0.113489163008985,-0.139581331093568,9.9634401696863,1.75885500025997,0.109836982133866,WALK
0.37,0.0414652509976311,0.544964695314962,-0.386005053050943,8.52198070316636,-0.959546673800683,-1.96068446413951,-0.146650025977582,-0.160422288974858,0.030608945803075,9.06767827982609,-0.896853476383449,-3.28172783383239,-0.0502053763723779,0.110506405581505,-0.147612535046078,9.71841525128047,1.63994172473582,0.0108838654721523,WALK
0.38,0.0111694278793586,0.439379982856391,-0.367301003882749,8.57284764840658,-0.599553917947722,-1.61875914078879,-0.141044133183463,-0.15057446186001,0.016619134982411,9.1439380969419,-1.12220170424763,-3.25726303298023,-0.0263272151381369,0.0909527554208223,-0.146893445958995,9.56672775848671,1.50835710248816,-0.127048018250795,WALK
0.39,-0.0772888659524244,0.366158185865074,-0.333238563431824,8.59420550209448,-0.325441129591249,-1.27828957241913,-0.133274464344093,-0.152069344663789,-0.0026973955244871,9.15677276683478,-0.933687085468057,-3.28479261764843,0.0136910507695019,0.0824115974862506,-0.130163003854871,9.41950329743205,1.44165271466891,-0.247583226776591,WALK
0.4,-0.20506325538719,0.308565706012939,-0.302207430527747,8.6509855597178,-0.129128009478339,-0.973905100042582,-0.0999110068099642,-0.162424505984996,-0.0324186466775451,9.13755493059149,-0.696698035012191,-3.38383511543769,0.0481159027866526,0.084706427565417,-0.101171873822532,9.33521875233145,1.41824728796441,-0.292115641065629,WALK
0.41,-0.332415260070072,0.264400664557682,-0.278588329761063,8.7479731974501,-0.207300864466441,-0.699970098979606,-0.0811156278671019,-0.163489165317778,-0.0484608145109895,9.12174551422597,-0.491418277179863,-3.43943625668921,0.0932900969036527,0.0883085978208256,-0.0722439406928037,9.23419813559154,1.44301843825832,-0.446497877981369,WALK
0.42,-0.432436967120727,0.230870489694357,-0.241792035257324,8.78832481662089,-0.42147931338319,-0.544735688164346,-0.0847537158692805,-0.173918959300816,-0.0601349057521992,8.92328986071427,-0.265436125449873,-3.40819694207923,0.137603762792675,0.0974758826921936,-0.0345820007820301,9.22180975866858,1.5154841533669,-0.362427014777782,WALK
0.43,-0.483496328398983,0.214879135249812,-0.205178262806655,8.71968274069647,-0.638294864199486,-0.369102881858452,-0.114628404431338,-0.195648191650831,-0.0665844375418561,8.81661261177303,0.028443936710537,-3.45896045468488,0.170480632082034,0.0988104491484995,-0.0006996842512422,9.30622123783489,1.52963161731092,-0.292128192728894,WALK
0.44,-0.504728786136821,0.194470113465588,-0.174027771221833,8.61260412273798,-0.630016524412366,-0.133424132045228,-0.151643461639806,-0.212165499135008,-0.0802036693432502,8.98708919568032,0.0649976212076688,-3.47445270928895,0.199814310749041,0.105154679372473,0.0310917970619247,9.36719302392309,1.56820479904204,-0.373884518674106,WALK
0.45,-0.516307658079671,0.162240924896328,-0.162427787373272,8.6965405855411,-0.700717756319866,-0.0171591224655351,-0.219675210510754,-0.207402397952434,-0.0733627521979729,9.38187158523286,-0.248374949955545,-3.42601176250961,0.23126488526874,0.129067469895394,0.0571226269803873,9.44067725246069,1.56279034648778,-0.377613069041633,WALK
0.46,-0.496579425605809,0.147630522030085,-0.165987449386593,8.70934319560407,-0.801803627437862,0.146085963801285,-0.243147575592714,-0.210636472407832,-0.0613150769541813,9.50789674779087,-0.686905666933347,-3.14584267269029,0.231908126387677,0.155919384798478,0.0747523009505622,9.50402789435059,1.65696474648051,-0.292958015877517,WALK
0.47,-0.436115471622606,0.112288236462817,-0.181183226976947,8.62665914363544,-0.775645072720266,0.293877764039128,-0.211030015283483,-0.202059698311042,-0.0487499685149441,9.48586370638256,-0.826877384574448,-3.03411790224171,0.239505414016727,0.160112884193297,0.0820138786292713,9.50169217566191,1.71996688093184,-0.151536908367499,WALK
0.48,-0.353320518321743,0.0674714981770674,-0.197210276427413,8.50505291993457,-0.781126801901653,0.460522182688992,-0.188226600081369,-0.181466583966808,-0.0335551018482309,9.36696209469873,-0.784216515690056,-2.8768232957324,0.20230492221339,0.155833934927037,0.0893366436945948,9.55533828786538,1.83195363316851,-0.131450197409004,WALK
0.49,-0.257557375600565,0.0136207867723872,-0.200007850581903,8.55002052915344,-0.838279510382755,0.73560691915759,-0.216460989865209,-0.18626468968517,-0.0384119419791184,9.17601912823901,-0.623652422932885,-3.03496347994123,0.154963180765804,0.132164244897702,0.0912831559035198,9.58179119844287,1.88506494340626,0.0382821249177146,WALK
0.5,-0.1948474249889,-0.0543764614782501,-0.195164269693293,8.65638613539605,-0.962189942018588,0.906626823112753,-0.243877337846754,-0.191884400262976,-0.056496483897137,9.17508381589885,-0.501640432394407,-3.21827518459034,0.107799063297111,0.0900474189231167,0.0823708923176484,9.60179322298662,2.01624375994752,-0.0070797014515115,WALK
0.51,-0.142694574570133,-0.130118032215581,-0.191021953942559,8.81316340826993,-1.00340740173941,0.950627450900585,-0.232153331906607,-0.189842475471623,-0.070423949468494,9.11314773383355,-0.450431666372806,-3.15846752829127,0.0655957973432829,0.0476022864413933,0.0675842959251593,9.51363262200182,2.08064736042165,-0.113845726903954,WALK
0.52,-0.0853054469375121,-0.18978386786218,-0.191842819538997,8.97533784021356,-1.13326674508533,0.780754223302108,-0.230014574460194,-0.196131987223289,-0.078122802031146,9.23999240679584,-0.492641565199253,-3.23772286576708,0.016603503031306,0.0172299698892962,0.0479181382803168,9.4428633648011,2.12249603550214,-0.268955818787097,WALK
0.53,-0.0212975895856595,-0.226607434974416,-0.193966693926296,9.19766843294864,-1.15842062258013,0.563282313419423,-0.262053090061221,-0.201614893567851,-0.0812156993282695,9.27870092391917,-0.439030374787975,-3.17565556413493,-0.0175544380633959,0.0069261952866003,0.0229959269367407,9.28272301163636,2.11600505728415,-0.354245791326834,WALK
0.54,0.0407401554863265,-0.21330086880754,-0.219753880395077,9.3936078663695,-1.14633145262475,0.377849266106707,-0.271980397218704,-0.216751940424343,-0.0900953063302052,9.17180068217156,-0.401554231700953,-3.20907107379085,-0.0654888460167732,-0.0050436781971281,0.0051400383484235,9.28264115066337,2.06032060200724,-0.350621511158762,WALK
0.55,0.0913334272204987,-0.200677002296641,-0.270427450916153,9.58493894006803,-1.087059136375,0.467408883791446,-0.278971434675623,-0.237561672322494,-0.0991597605168041,9.14100304534773,-0.359648526494639,-3.23642097235745,-0.0942773328065548,-0.0291576639992953,-0.0087491546604953,9.35460747388014,2.00521918842787,-0.358677834062278,WALK
0.56,0.122060892264077,-0.151312124573959,-0.316436029172873,9.4976090958952,-0.855667798475733,1.02789336974911,-0.295251183215212,-0.257593394266032,-0.110717580838615,9.04595958116809,-0.408491059113372,-3.28985884778747,-0.111543309972151,-0.052164915996515,-0.0103861978384347,9.36707622758579,1.99177684477049,-0.439006066469187,WALK
0.57,0.114789567020616,-0.135884161190806,-0.353083791908501,9.27625756540837,-0.448538964697373,1.667046986568,-0.313665519581007,-0.29129543046752,-0.129054776676815,8.95110063475296,-0.568394086542123,-3.65212030550104,-0.113984782504958,-0.0767377405865043,-0.0015674749383313,9.39218712890204,1.96359809916914,-0.600023523876108,WALK
0.58,0.0607867281771898,-0.165320098079679,-0.381994764683591,9.35429978144506,0.0053977744754788,2.04723683793313,-0.32401092793587,-0.319734008371479,-0.142800130246626,8.93993226125169,-0.72632177269821,-3.84602093713015,-0.121105294719976,-0.0889509030749623,0.0077356882627633,9.43449031373725,1.86378991625501,-0.640719675229043,WALK
0.59,0.0120766508759236,-0.187119653423703,-0.399186451651491,9.6379879813114,0.34066411952387,2.1932786145678,-0.292126548537364,-0.327368197346853,-0.159230780194735,8.84965104263111,-0.641174604655512,-3.80158647709234,-0.132837585308084,-0.0989696730183693,0.0257595080012297,9.44051289946942,1.83212995893262,-0.602656738437981,WALK
0.6,0.0364346533683884,-0.236387293267952,-0.395713198640061,9.85506909032256,0.463497341187873,2.0940020763367,-0.238514884251552,-0.320068502391765,-0.176998027903592,8.74948486863483,-0.643136304874577,-3.76949012908147,-0.130699758450508,-0.111731402469756,0.0411843820117971,9.38845410539117,1.76409140980555,-0.621661212909067,WALK
0.61,0.0332961882659287,-0.268447338498764,-0.344946518718434,10.0343157143219,0.488693799599953,2.18325387853488,-0.241514866991479,-0.330885713494544,-0.190983225935857,8.77580770810448,-0.708169227650691,-3.82378047185527,-0.121147564269909,-0.123475683092828,0.0602288171920143,9.27997367485223,1.69301728205433,-0.688489285321703,WALK
0.62,0.013047727639293,-0.240233102265907,-0.299473664378094,9.95604329500602,0.419119092139504,2.3215245161828,-0.242343971098599,-0.340048484548883,-0.202252447114165,8.88086737817307,-0.609931662100368,-3.69746468347232,-0.120316461619051,-0.124454023238177,0.0738208930324719,9.23647655315502,1.62411222517769,-0.655553296613333,WALK
0.63,-0.0346885584924926,-0.206705952930394,-0.252167146278071,9.96855698540968,0.418691222997089,2.35165452327818,-0.210292467080762,-0.338417314873966,-0.207555452627594,8.85285379339561,-0.60761494894855,-3.35662055920229,-0.114288632781943,-0.123920544576872,0.0843773580591222,9.15068853051946,1.57183426366108,-0.738398403053985,WALK
0.64,-0.11192453605013,-0.181499296427911,-0.22731295978895,9.90330168698188,0.500270508658162,2.46666903400176,-0.174571660201222,-0.336873324202595,-0.213336377613487,8.77101500867387,-0.501732252555434,-3.07458034211476,-0.103170309953578,-0.1297258588071,0.0961438100640352,9.08084153682698,1.59863825171276,-0.727365749427457,WALK
0.65,-0.1790361908638,-0.217286480985044,-0.205537916295393,9.73165806839514,0.62361676653956,2.29384684716613,-0.169931815473873,-0.348728414909504,-0.221412190979367,8.82932917593951,-0.352839771538691,-3.06871605919703,-0.0873512982303764,-0.152361554099986,0.111813330191944,8.93681233286861,1.59230068691385,-0.715693275225991,WALK
0.66,-0.211622868011948,-0.225231179191257,-0.211002591018824,9.65305345745637,0.812026724280192,1.73997274713314,-0.183068294652565,-0.355718354972973,-0.228296440099517,8.98725378780791,-0.366298126988856,-3.01899906904804,-0.0953080248869541,-0.176952789878603,0.120954656340651,8.88844536049514,1.65942262375836,-0.734712152750196,WALK
0.67,-0.209617955954386,-0.237022091345156,-0.218350675745608,9.40529148171971,0.545450135299067,1.21127521173967,-0.195745414970172,-0.364959222583084,-0.245861956931221,9.09762695329855,-0.51875695494747,-2.92379386474836,-0.110697037033122,-0.193907454483436,0.120944192307253,8.83941240984091,1.67181069320037,-0.753190321421691,WALK
0.68,-0.190406173562006,-0.274475609885552,-0.220618260738876,9.28910711507471,-0.145830821464411,0.885339849678907,-0.216451405010885,-0.374736953360548,-0.250061270139461,9.46263950042371,-0.528709463558858,-2.9627207810889,-0.135400014337475,-0.214717138950647,0.119345048082646,8.8932961359968,1.78186650887555,-0.759588102700166,WALK
0.69,-0.148942853050685,-0.322265866579931,-0.20077969118181,9.09692540171547,-0.542589907445736,0.451484136228316,-0.210805742341816,-0.359736714919936,-0.257210579745073,9.70896480200827,-0.549810106895688,-2.77262715391986,-0.150872371354467,-0.222231188046147,0.112501006435603,9.00359929340517,1.83834820798651,-0.719277397573548,WALK
0.7,-0.125660731379665,-0.427017076198526,-0.166006804849593,8.94554660007382,-0.796180911116836,0.0585147555503936,-0.203375044487122,-0.343919517669579,-0.265870330161264,9.800962925448,-0.657657775615892,-2.58323740633334,-0.17730177723708,-0.222022499557093,0.0968517405265836,9.37154943915441,1.83230586092816,-0.466358531824408,WALK
0.71,-0.0479330273896812,-0.498028547253661,-0.116839099100683,9.03835248380017,-1.40205744647233,-0.37200637656692,-0.21315498782544,-0.333602223400852,-0.274452670787193,10.1418980843078,-0.897721217981406,-2.68110536063548,-0.234581922197299,-0.261666879789971,0.0615496483506494,9.91298608598032,1.75886441639655,-0.211014866005279,WALK
0.72,0.124140781593315,-0.577916032642567,-0.0541505280552857,9.51019594101997,-1.88053011560277,-0.975569167821374,-0.21469400871597,-0.291445812847896,-0.273939460670088,10.6402806980728,-0.985237423082243,-2.69646249194164,-0.267919674366518,-0.302325303820637,0.0166012483715702,10.4693209863051,1.69310394349826,-0.164223235423933,WALK
0.73,0.278937456320228,-0.603723146707898,-0.0151272895364806,10.6565270409495,-1.75021916245546,-1.00231342260631,-0.182012648297098,-0.226576658120268,-0.271514742772138,10.9432125587378,-1.06456347488506,-2.40775175751199,-0.239823907765837,-0.307588471149985,-0.0460122420392803,10.8928146236584,1.6010596892105,-0.165727105527632,WALK
0.74,0.303281974115502,-0.51758719335645,-0.0233920485893829,12.1846458454355,-1.22377047072574,0.602974486657908,-0.128457573763973,-0.159089460085992,-0.268000300308413,11.1054672038866,-1.21517865364693,-2.26117204946921,-0.18835456756869,-0.26462614488469,-0.122714025061631,11.3050985120767,1.4185344387705,0.334318893964676,WALK
0.75,0.163567064698396,-0.213837292539967,-0.0847239545371545,14.191801035892,0.281735596039831,3.25136051963403,-0.0443471210790113,-0.0908531739410736,-0.273252339210787,11.3525725175396,-1.13489915834197,-2.5877740617569,-0.150267685081785,-0.248709688575047,-0.209384761132095,11.8339130590486,1.10832885863158,0.659920352751571,WALK
0.76,-0.0091368285757342,0.0011767726213703,-0.196671408265607,15.1779347362604,2.16228969654616,4.63389681213249,0.0392576569266503,0.000142247810634,-0.287471657371934,11.8547384845531,-0.935403919978001,-2.91876915675723,-0.106321029605629,-0.26170047858861,-0.287303581145576,12.1549792306478,0.816746060276288,0.654022653666325,WALK
0.77,-0.037621705940471,-0.0779697346653778,-0.296847137555146,13.9017578117901,2.5789973334315,3.0643056323899,0.102246567608447,0.119791433850774,-0.296894450775372,12.009031692352,-0.330750147481929,-2.89869427729236,-0.0088450973613806,-0.273083897675127,-0.326104781926652,12.0618539179128,0.695415193803953,0.275263085587634,WALK
0.78,0.0715246394840878,-0.249740005993436,-0.333254762523863,11.4705657843685,1.48725536436771,0.574635732456256,0.17984215566166,0.260583890032094,-0.307060543933035,11.8660135338462,0.270763351933659,-2.55826941957823,0.1224417074328,-0.251378966640899,-0.310514128417399,11.4532191925399,0.723063102050272,0.0596033717908605,WALK
0.79,0.290501598155322,-0.40280604932169,-0.308894383882553,8.90512786552034,-0.366888062473276,-1.12381951024567,0.240896245552004,0.405958397226918,-0.299321635720741,11.615285910301,0.855132154921473,-2.03003947703723,0.195488700422262,-0.243559187611169,-0.256996890076959,10.6909104262101,0.865372207641598,-0.0468336048863477,WALK
0.8,0.568256816419702,-0.603294438894733,-0.224192208986171,7.11535440577711,-1.79506541929784,-2.23011060362282,0.225931406649991,0.524649732785554,-0.281720700283178,11.5188863851284,1.63858022349373,-1.6776416740492,0.223898965416766,-0.230285273937544,-0.169266247699733,10.0317202589276,1.1629042120511,-0.0064307225511198,WALK
0.81,0.765370585270987,-0.714924181939095,-0.134477334381927,7.43685087943933,-2.23910208033473,-2.43657993192711,0.202476741845423,0.65869619034686,-0.264186381308608,11.4640150015226,2.24499478648447,-1.11179594204214,0.194535034807827,-0.213621189396587,-0.0543514723490305,9.53207731252538,1.53394277756716,-0.0409541464420324,WALK
0.82,0.829992926746696,-0.647203180112591,-0.102121392396642,7.77264628196139,-1.82317826382979,-2.20276203473427,0.17208950824359,0.7747243807932,-0.252298904787526,11.3253393955035,2.43691523157262,-0.494775486732163,0.122148943991594,-0.200418755641329,0.0590618960384749,9.32710390433866,1.91801078556268,0.0238493172486202,WALK
0.83,0.860745503142138,-0.59034210381038,-0.122027074638962,8.07701275710774,-0.780748127681986,-2.28387738898512,0.126400124847997,0.866080976607365,-0.234786480349776,11.3541065472879,2.40230488076519,-0.0567939720998097,0.0464284579540548,-0.166857089551211,0.142113729846037,9.29425530973166,2.17908093262701,0.317055147531887,WALK
0.84,0.861720617661852,-0.586851971864742,-0.138748091383489,8.73099681103069,0.288572105138702,-2.55456857759636,0.0744745188695068,0.971040685070155,-0.209710113653902,11.2731034420022,2.1778782380712,0.284044331821531,-0.0094551698394312,-0.135659993707189,0.191405329568342,9.41848866460734,2.28937044252179,0.519945159140125,WALK
0.85,0.805769210093884,-0.637168682262351,-0.102041037508163,9.00546266312051,1.56579224972003,-3.53903483930164,-0.0040813887041382,1.09438246454145,-0.179215597261058,11.2056249509596,1.62198188442223,0.862666102591199,-0.0709145775524691,-0.109919934351391,0.205800140686201,9.53289053167494,2.21218034595962,0.800507454372819,WALK
0.86,0.698901566088634,-0.731877088330025,-0.0452753749025388,9.14644481143534,2.31802444978098,-4.03323461624887,-0.140404103972227,1.25013139467676,-0.111119302520774,11.2461681326828,1.00377809065513,1.18463105081005,-0.145279630890287,-0.0843067434151524,0.180260646561299,9.62791033613456,2.07250389031081,1.23516878805763,WALK
0.87,0.465630160643256,-0.781095874988085,-0.0195073420676975,9.42777809774628,2.40934724982136,-3.50604288819208,-0.360493311035205,1.48114943636814,-0.004792673834058,11.1628459080904,0.295153071168528,1.1798166887068,-0.218036663802138,-0.065684335155072,0.1217165657702,9.76058552179931,1.78257016030232,1.26672714914937,WALK
0.88,0.311205578244291,-0.871959200677424,-0.001360749258824,9.14690237356947,1.8538917571566,-3.80319468314127,-0.519424893735225,1.73532104519026,0.041058862304257,10.6364558745185,0.431686416245629,1.14554248628334,-0.267982086432505,-0.0360319614333411,0.0514249048658955,9.87211879711572,1.34322019687678,1.21810783355865,WALK
0.89,0.231114803829925,-0.943937595592663,0.0244213386886947,8.74194673790625,1.25350837590189,-3.99226537276383,-0.546038233303982,1.94707017285382,0.0208102971691263,9.90936998700145,1.20530146804638,0.0746612912981534,-0.330718622786964,-0.0125288725885829,-0.0159439250881446,9.91636710719201,0.846017543646172,1.21863561224853,WALK
0.9,0.182109856567466,-0.98219236653673,0.0586232932219938,8.6119681843071,1.0312878521046,-3.70241502650512,-0.519037796190274,2.21296104583939,0.0004095807224876,10.0760985424708,1.22264681200766,-1.02572243033382,-0.372793312370087,0.0156141573644643,-0.0753784444184651,9.76004953118114,0.388757978165925,1.21558705447602,WALK
0.91,0.168509589134175,-1.00208342004734,0.0823878587654759,8.91401888743329,0.820577507465411,-3.17817360307736,-0.542258106070864,2.40726089421555,0.0225957456540908,10.3319024831495,0.643966116083857,-2.16636440408194,-0.372583115687026,0.0645309544264851,-0.126343235756063,9.44793420478331,-0.061810114633413,1.4880860057903,WALK
0.92,0.123050853162318,-0.98826328580537,0.0839103150461878,9.09147765268434,0.638127141959065,-2.77409356466964,-0.82334762317299,2.36931267847594,0.123167038795006,10.9403594442991,0.131293820150579,-3.89569492279564,-0.372583115687026,0.0645309544264851,-0.126343235756063,9.44793420478331,-0.061810114633413,1.4880860057903,WALK
0.93,0.104721276757651,-0.9567533508557,0.0989068818173943,9.40073861321757,0.471308795685085,-2.32597928407269,-0.897004710676117,2.33062035338591,0.312531559360956,11.4373849721381,-0.665585437451882,-4.7669249025358,-0.367554279933666,0.0933217098172263,-0.150482158520567,9.36069351083908,-0.361428686799458,1.63383802888029,WALK
0.94,0.137103264488759,-0.914188992594022,0.123908778378583,9.75083477399794,0.623740898801705,-2.03220705591322,-0.67968548503938,2.20715803226937,0.505536309920543,11.73034718332,-0.764133173409896,-5.21912733736545,-0.334123510457552,0.104621195755431,-0.143225264520321,9.50735745160003,-0.397506083368782,1.63372308027117,WALK
0.95,0.17961283691663,-0.851236916965866,0.146774715756698,10.1743194906357,0.986289387983061,-1.93207747083473,-0.308790125305619,2.14570810194597,0.648142360406822,11.851347614075,-0.716803009166183,-5.62704630508019,-0.291258493757797,0.129166719439791,-0.123288590437654,9.71261560934255,-0.302623289842174,1.55708849840333,WALK
0.96,0.171864030859005,-0.768191296938982,0.168873268524827,10.500235519092,1.58499337987401,-2.06745116589498,0.107592074039187,2.22228491271184,0.791144111834357,11.8990862705527,-0.683425033046602,-6.11377764160969,-0.231231741237851,0.135533820533196,-0.101885983239642,9.85446835435438,-0.186459484636814,1.54064894808372,WALK
0.97,0.105093310599703,-0.714436764341943,0.171230283309648,10.4714091585763,1.83473714629203,-1.96019031757338,0.480115621609981,2.32326048620692,0.870449013947676,11.3947660058958,-0.674911476990129,-6.62592249303572,-0.170985756179526,0.12065883030255,-0.0666097443420843,9.97223839927785,-0.0718302758478367,1.52962195382817,WALK
0.98,-0.0428799688216825,-0.651849396664091,0.140111104708184,10.2851893191146,1.8338642923823,-1.86498469135361,0.734755049026911,2.3359179244704,0.845403590482207,11.1051928166654,-0.520140008803596,-6.69062653922723,-0.119356102140451,0.0781533240472652,-0.0296213243477087,9.94029430790731,-0.0035315143872329,1.51273396146925,WALK
0.99,-0.0830486353956293,-0.634405007313395,0.107631992479836,9.83843208267032,1.70001363057273,-2.00228341940985,0.890330736854167,2.33895487388994,0.782973554114883,10.6161041037119,-0.368508568934145,-6.20724864440902,-0.070493368331418,0.0283321262162156,0.0193391846271204,9.81140354566174,0.160615569893281,1.37828880186649,WALK
1,-0.0415288031343467,-0.633917131543139,0.0963999399161282,9.4609468469998,1.41906769418981,-1.84579895488102,1.05593628215867,2.28051455874806,0.687254693032344,10.1495552744385,-0.0054793382901822,-5.25332046563603,-0.0287746840316325,-0.0127381133587003,0.0636337980159684,9.69698724023092,0.290262285394218,1.05825103688336,WALK
1.01,-0.0159674385802905,-0.620442824978829,0.0885376148054625,9.38266004316823,0.986566839869978,-1.65304656659204,1.22198149587467,2.21554165718148,0.558594965662483,9.7856921095731,0.307957497351598,-4.29430214206362,0.0072552703855908,-0.0370992912599996,0.113527901493703,9.63283450481404,0.371071476531493,0.858216390848735,WALK
1.02,0.0241181051358863,-0.59302893520788,0.080681890467689,9.40646135320656,0.54841337827397,-1.92384158048646,1.29703944995096,2.14053111132702,0.447376682294434,10.0379508369271,0.75586944924203,-3.55603025077782,0.0301499156308689,-0.0382448268537444,0.144900023542945,9.75576443169383,0.36005566020549,0.718651994736738,WALK
1.03,0.0702926866066623,-0.571257451465603,0.0804470546135748,9.54825063535267,0.572507465926054,-2.35633117950245,1.24942292932886,2.07030138205339,0.401741244087,10.393650718982,1.1398957380966,-3.04347878155435,0.0513865706250185,-0.0293303072766031,0.171885835415425,9.92202579576806,0.366679267682652,0.671046721741111,WALK
1.04,0.149581477284035,-0.556266429321931,0.0781196106320053,9.48491796464012,0.895970444461102,-2.92863541090863,1.15641441497923,1.98926682908242,0.382305449715632,10.3153946995554,1.34493120479354,-2.5092428605164,0.0495942370211635,-0.0254485371949879,0.188969751720751,10.1951164666904,0.42431270166175,0.658699571995355,WALK
1.05,0.201275419710591,-0.551593235776518,0.0735076025773345,9.38322769459363,0.812536450098382,-3.03794398054708,1.00129184045045,1.83860646060221,0.363172753278792,9.90526509199531,1.59929676813897,-2.3959481310398,0.0139869655606159,-0.0227983593898681,0.194146934967578,10.3285417278535,0.413471933200484,0.818854745345693,WALK
1.06,0.165476755935663,-0.548648383117627,0.0773260805627,9.45350413884982,0.743156614090817,-3.28485001612375,0.859612633648745,1.6853238854224,0.356175338749316,9.75808604536273,1.79822866929863,-2.29019231634077,-0.0409761170846832,-0.0288344908780581,0.192158031040885,10.3144299601367,0.414922401655466,0.864089491768256,WALK
1.07,0.131911562951701,-0.538867673922288,0.0843099052912981,9.15979367058289,0.573040558336252,-3.51381056763246,0.818927608678748,1.57748549450644,0.362272383330592,9.42101558000564,1.68887388730268,-2.36259116382934,-0.101788299045179,-0.032845206150672,0.184746715970374,10.1483285490877,0.419391766452931,0.772738354566674,WALK
1.08,0.0710712781645946,-0.5324821010044,0.104311800021316,8.91181413277259,0.50785411507729,-3.50945685725048,0.834984405303154,1.44357325459761,0.369962220627553,9.23639014284184,1.36014154148475,-2.61641655617311,-0.149182362482309,-0.0186549046321598,0.172928106301462,9.91778815241736,0.492393310580122,0.607097184566813,WALK
1.09,0.0115552898826182,-0.511701691708928,0.125808359303979,8.8655664915278,0.622254445288634,-3.53209307780908,0.857739773821091,1.33582779724931,0.382863423188938,9.17318354484241,0.983407101448192,-2.86023224185911,-0.178591630040682,0.0042719656299819,0.153974071540907,9.70971206011719,0.620819005487566,0.551522819092482,WALK
1.1,-0.0149513851328409,-0.499462272122515,0.13755259761081,8.82607308869433,0.791986655403728,-3.63664700423959,0.839477554548608,1.24095672807569,0.395675665502137,9.0570295747148,0.903248402819172,-2.9198384722836,-0.206007621270345,0.0247739290796898,0.138736881275857,9.51494825454,0.752267800745591,0.440364640955819,WALK
1.11,-0.0550395232301353,-0.490307674493106,0.147782251316716,8.88122928976861,0.886073413472561,-3.55639481646417,0.835616362815329,1.13797542855324,0.354205212027736,8.6015701370658,1.4855311232756,-2.62000239937708,-0.231155507913265,0.0445292344286936,0.110122368976661,9.42813427192086,0.838300363943596,0.498437451851148,WALK
1.12,-0.0830768313356177,-0.479020980512607,0.150833193425602,8.88746895287216,0.888998355380252,-3.18385801217498,0.803257582563167,1.02167181079495,0.293094861991044,8.23057736161123,2.00075380775655,-2.57012151296927,-0.260847223362395,0.0670829042368712,0.089147734572799,9.36202105712793,0.863321512241899,0.419734516041425,WALK
1.13,-0.0990521016291123,-0.465781500916829,0.143222996493162,9.03137625471242,0.880149815806677,-3.05897312151654,0.756020327745524,0.944848641896548,0.242244293154916,8.09249475077401,2.07168619530603,-2.58948443894595,-0.287328054160788,0.0983628691945114,0.0770341390755546,9.30625993465142,0.757670292081363,0.405123067274899,WALK
1.14,-0.0463438261657006,-0.469581295967665,0.140471798824284,9.20674685308713,0.821077448205394,-3.12962436256038,0.624627060221373,0.936727181575381,0.215831056398669,7.8679262511202,1.9994977616468,-2.40253864852545,-0.311224703654746,0.132344768546724,0.0718725437527343,9.31738133855948,0.612000652994415,0.233675386453972,WALK
1.15,-0.0098875786984287,-0.484636839774039,0.147599487360801,9.30642867828006,0.656069762051671,-2.92758859432364,0.426251154377533,0.910951331912234,0.203198255075274,7.70050722212418,1.78478537890395,-1.98778480548349,-0.323759486417695,0.175184994103463,0.0658791075700214,9.39273275294781,0.351428657901801,0.271310853540493,WALK
1.16,-0.0300105127033503,-0.511231539434155,0.174410167004627,9.44097440663621,0.593753258482667,-2.86376395947828,0.24217399719419,0.867460977691504,0.209163947899936,7.71524685386275,1.53467631663232,-1.60684559335841,-0.325748221206897,0.203226799342383,0.0676920375976385,9.52121361362556,0.125921841964508,0.201485632758363,WALK
1.17,-0.0092249989196896,-0.529943117731553,0.208240772222091,9.40305001543335,0.300316871546739,-2.92555642912491,0.121932377976256,0.815950676551104,0.231706187327757,7.61783615181071,1.48998324562273,-1.38610530513387,-0.315269610542702,0.211923374182193,0.0614351796281807,9.64597395452975,-0.0261160506535121,0.236232386546716,WALK
1.18,-0.0133746921124258,-0.546361987695753,0.246401094311452,9.26611777403774,0.282516784368016,-2.95014439624481,0.0989215809640425,0.767407127301599,0.277578927778289,7.37830444330879,1.28846521880584,-1.32560630189653,-0.289031055145284,0.206976588498281,0.0577267135053679,9.67920464051207,-0.117819765865163,0.17950975586482,WALK
1.19,-0.0230718843828438,-0.551571486736849,0.279501658913442,9.14566543782457,0.186466167939509,-2.9102079265966,0.160192698346184,0.674365251435971,0.294365371763894,7.05549928577062,1.20070257061053,-1.37382862116596,-0.258963753895487,0.183244508707886,0.048826942717526,9.6996610654397,-0.079238873903566,0.173870113072852,WALK
1.2,-0.081616310330999,-0.54312857203576,0.293707424481759,9.10871566833708,0.221640191833922,-3.04194302839483,0.263477494784204,0.530352640158029,0.282532729397928,6.94964003864397,0.949986820495028,-1.55894934136714,-0.223493974164771,0.158211921350991,0.0385823633308245,9.56627115866866,-0.0350001553397741,0.139672027190114,WALK
1.21,-0.0823511251231167,-0.511860370071747,0.287603950758264,9.20194293977756,0.380541564507496,-3.34936783829045,0.332403544424689,0.388833145041756,0.281300035947684,7.08407494613565,0.418029868806295,-1.70305141449808,-0.198491444977799,0.143427050822713,0.0249466779841938,9.47261185000514,-0.0096263865530559,0.0505221438121994,WALK
1.22,-0.101006679235269,-0.491557159481751,0.276786157390022,9.16037911417748,0.475404868922906,-3.12588701220956,0.315485329623044,0.229736535567775,0.301524599037841,7.30874822623806,0.147229728706531,-1.62982432941068,-0.166667995498108,0.14563565672164,0.0126402932863123,9.29733608617416,0.0257747436394706,0.0539735466514672,WALK
1.23,-0.145431595283286,-0.491859742772025,0.273919758382842,9.21933417163291,0.835332010734333,-2.92967161513877,0.27748126116831,0.0890618575594407,0.331306120521272,7.38804875546342,0.0903186322515808,-1.36039350844733,-0.129226163501392,0.146145054666039,0.002410770863441,9.21811663674454,0.0609741524973089,0.0395124652309121,WALK
1.24,-0.156669094885397,-0.50897114898946,0.270034537663168,9.21723211765251,0.827444920154349,-2.45344673872218,0.281325156237275,0.0106928532956954,0.309352386055524,7.39818963990222,0.186540436239165,-0.70447060835437,-0.0892848022294761,0.135555791702014,-0.0134477358179969,9.13212147658319,0.0555912290864751,-0.0099459657675111,WALK
1.25,-0.177793473076498,-0.510006296354612,0.266722481794934,9.30321273403277,0.84416119804076,-2.59380280067831,0.294296452290273,-0.04067221646535,0.224418893693293,7.26020849323304,0.331091545642129,-0.0706223775233517,-0.0373279296296806,0.123313724246277,-0.0167544155452578,9.16104520418181,-0.0146645998301772,-0.10723532444301,WALK
1.26,-0.142264193645391,-0.500783947452615,0.258714952554164,9.22204725364862,0.562094525821176,-2.78743130023843,0.219067553244979,-0.144920220181216,0.109656023157032,7.14074912395871,0.233184016189867,0.061155163294959,-0.009188934766576,0.100233784916406,-0.0122909681510687,9.25627464732635,-0.145975799650029,-0.110241627279902,WALK
1.27,-0.119005116500441,-0.509575098263436,0.252919619226138,9.18880698035892,0.252019844446984,-2.53621867024979,0.0819154299257195,-0.313124705810197,0.0167597828589363,7.43542231324822,-0.031274234461522,0.227390535576194,0.0000001510476902,0.0870895889286304,-0.0015329643874927,9.30609350076747,-0.245253042982399,-0.0937349280690087,WALK
1.28,-0.086759062318661,-0.529461329501206,0.265510964873996,9.35447866571983,0.190207818412862,-2.50319464415177,-0.0409320316638425,-0.479378615085491,-0.0073582184106532,7.97826448411234,0.164726807158298,0.61189426899941,0.0068788777980375,0.0671578226529927,0.0086365324656048,9.43484476984479,-0.381523618128058,-0.050235304560728,WALK
1.29,0.0051136634954796,-0.556546876409423,0.280270260345244,9.46991333755575,0.113619374628331,-2.81758097685704,-0.141067793284421,-0.596819995879531,0.027734912249706,8.38497283073023,0.507915815844862,1.10880417744214,0.0263421226517211,0.0420645783131679,0.0198636827637414,9.53621408046519,-0.319919640381295,-0.0372665744930143,WALK
1.3,0.115736886530628,-0.593835667880316,0.296615515908924,9.37288036501927,0.329145830598256,-3.26396357721502,-0.225386900573869,-0.694666086559022,0.0809446038818506,8.53427679919921,0.83388262685404,1.7289059567263,0.0551935073264992,0.0040962652085453,0.0218775858919614,9.5545745192312,-0.232689215435642,-0.0777204616715267,WALK
1.31,0.188357303680861,-0.612835949664815,0.316883092004389,9.26262610174483,0.543691507291748,-3.27472093266129,-0.295906999043451,-0.815537023211319,0.0976395578657668,8.73432807813101,0.940925210242372,2.03832286721682,0.0942720735351161,-0.0420322172671215,0.0213707606076937,9.45238560918314,-0.125852417174416,-0.244191611193219,WALK
1.32,0.176900046102828,-0.62634793541137,0.316629935667519,9.0410750951746,0.650550126826223,-3.0502852840829,-0.329454837846584,-0.911591157046134,0.0898440348001704,9.00252542784576,0.750866219876485,2.36644752458899,0.142519772908328,-0.086955010521155,0.0209083555464684,9.37527719697955,0.0348144364349117,-0.416656479661725,WALK
1.33,0.166023522282181,-0.621182982399384,0.304468058777261,8.99514770327999,0.559852015587,-2.73979917990247,-0.366745963410979,-0.954721217516007,0.102102956825475,10.0978341447032,0.659458677164323,2.7604943691216,0.190030610785706,-0.121839361811695,0.0051321571820419,9.30955258324816,0.165815605541719,-0.663461879797455,WALK
1.34,0.17780300150988,-0.599717785150519,0.293701367962021,8.97100733564824,0.509328187445832,-2.67287114064105,-0.417718565451719,-0.902813136696637,0.143963637976002,10.7718296994795,0.280187374560199,3.22569724646353,0.225523415043339,-0.142434348223965,0.0106799087749041,9.3440886966211,0.287124777724494,-0.765254665536399,WALK
1.35,0.223669161794716,-0.580873406580037,0.304081304449118,9.21309631507759,0.627696992522747,-2.61887344229233,-0.430264468774663,-0.84601079533371,0.173480031189661,11.1332770555557,-0.0077312382993386,3.7402233776654,0.22384328757067,-0.140719452733595,0.0137882204133812,9.54429656545058,0.360801169888893,-0.634264338910035,WALK
1.36,0.238020654558948,-0.543770875021637,0.294901091041324,9.57212982603974,0.665961526541419,-2.67722761211887,-0.339921657305079,-0.755972807992337,0.194222670033714,11.144903776314,-0.234695960163478,4.18093888791594,0.201698942235231,-0.128552145906749,0.0254181501817938,9.69318736067834,0.342872666675851,-0.642523069090395,WALK
1.37,0.244419326068939,-0.503912427669816,0.282079468352917,9.68693916208108,0.671129693848733,-2.6432496347444,-0.228948126281095,-0.685202052759383,0.198943588261394,10.7937062670169,-0.540879273371756,3.97175319135858,0.163492069518212,-0.111158702746886,0.0363201538267012,9.84929684380338,0.289397913143755,-0.607907910663042,WALK
1.38,0.260847067069275,-0.47450871576932,0.262524139482176,9.60907215032554,0.598056485027296,-2.45445687798525,-0.0988431417776623,-0.685508164639564,0.162866228735226,10.2962517667494,-0.711617470351887,3.45312519187076,0.118241251326071,-0.0915594052995858,0.0474193812941809,9.88018638874264,0.101835826170295,-0.431687392822709,WALK
1.39,0.293935045423392,-0.438842459739759,0.253293336465386,9.65995179366791,0.498205918285603,-2.49692280047523,0.0261843109075631,-0.677788851377118,0.133636537838813,9.9665965269373,-0.529801556740345,2.76920334812492,0.0794488706900085,-0.0775988848901139,0.0524910107638538,9.76702119812542,-0.0954869633466984,-0.493720438907248,WALK
1.4,0.331244577403284,-0.397639024313911,0.241103405411313,9.59606659443566,0.516805566498469,-2.87776891878912,0.107833771856778,-0.575093338711328,0.116547392132927,9.53931161793,-0.213030918115523,1.76191265952382,0.0631853297089627,-0.0669478777342471,0.0461835704145183,9.56023333769433,-0.264677954218914,-0.657810625269803,WALK
1.41,0.395896584259183,-0.350680872803434,0.216581042746087,9.48608809367545,0.420384350809488,-2.9522450069136,0.129363178323249,-0.518951786970742,0.0848660471734166,8.46447426996536,-0.0285190734033668,0.861317779214133,0.0779721218863539,-0.067353775601284,0.028236141807651,9.31839323486702,-0.395361759627759,-0.612826551762289,WALK
1.42,0.396527756472011,-0.316267444107887,0.194540626445514,9.25741813816067,0.197604331610682,-2.56433034665805,0.0966143313307638,-0.595622795888391,0.0317603958882259,7.34202703495306,0.246586634639181,0.0549655712250896,0.11424215156641,-0.0901696504554418,0.0031112552770119,9.08473476888746,-0.510237982212696,-0.658195886448757,WALK
1.43,0.406059596162827,-0.2713884185768,0.179793005535517,9.15551508775823,0.158916923923969,-2.53899247189107,0.0271616685155921,-0.75448859834728,-0.0210938754542643,6.62170877183295,0.61776997234369,-0.984758652861736,0.167065238800877,-0.100096578036633,-0.0297367128296836,8.96400819713434,-0.548922204502952,-0.378046932537205,WALK
1.44,0.466774325059084,-0.231318544526405,0.163844356275051,8.93473905822565,0.258985147356306,-2.51569795221334,-0.0289893143132047,-0.973956967772836,-0.112885917674941,7.27813223978523,1.02026506155409,-1.89116987916707,0.195982372159864,-0.109529797912446,-0.043776324212497,9.16121917575043,-0.301052285151428,0.363144035098913,WALK
1.45,0.539731277085191,-0.199351379135667,0.153895714635488,8.9709284806714,0.789262716362514,-2.66830542024517,-0.0986944494184249,-1.24089628925196,-0.198160777321187,9.40829199273861,1.23647470598669,-1.93932357757029,0.174600888604932,-0.170804581966177,-0.008298071986761,9.94732484514974,0.267621779360313,0.886856635119402,WALK
1.46,0.575370940565318,-0.150944714552984,0.147489504891923,9.40040517489582,1.35451165623431,-2.97208729528601,-0.256891829020746,-1.44003980233446,-0.184294261813708,12.603227641784,0.245798049779616,-1.27136083506633,0.154033840080955,-0.271693187532984,0.0891800703128278,11.1359329945675,0.961848758188697,0.623596390278945,WALK
1.47,0.568479815698586,-0.0881601835955435,0.143899624484333,10.3748798434898,1.89559924496316,-3.37151469609549,-0.426779488383842,-1.3708334506936,-0.0060303946422978,16.7003345604848,-3.4561061933673,0.247713629402467,0.131025225692579,-0.326231348456581,0.225634493584813,11.9923163085937,1.51884722096034,0.305307116528228,WALK
1.48,0.520216406082667,-0.0129760182725991,0.135439593682808,11.61931474246,1.88997453668604,-3.02288039987501,-0.327128014020758,-1.07756126519941,0.211546388840857,18.9079405306608,-6.23920204015405,2.96216765783268,0.0685305579708897,-0.293205469556882,0.357892929802104,12.3497371384727,1.80853166189731,0.863375875096225,WALK
1.49,0.397175914493954,0.113203046002668,0.0824542648513526,12.1103699782678,1.51343802241032,-1.94790127584366,0.186377331942631,-0.790322860127914,0.225088148933108,17.2627674519501,-4.20919987620232,4.18346311045442,-0.0662101340257949,-0.267887808320456,0.462785388474974,12.6001579371539,1.91907027512721,1.49826362724918,WALK
1.5,0.319774989050498,0.219210920855254,0.038863531299407,12.3013016990822,1.06130289936273,-1.05804353814687,0.565654842501707,-0.611741676200259,0.163195965643385,14.0448881272979,0.0730517574311344,3.10765756129151,-0.181574603740987,-0.281089999494143,0.517783418905186,12.3837438076075,1.78050157035437,1.33220171004053,WALK
1.51,0.331629075945009,0.331062924945291,-0.0082184359301805,12.8318132898945,-0.0643904788077526,-0.977881676351806,0.583687326409613,-0.576520347980821,0.0425517308109511,10.6141340226447,2.64450440024795,1.33095838886796,-0.24960839366254,-0.281250669531167,0.483979779526973,11.6232851658909,1.28104439460296,1.26739370025745,WALK
1.52,0.361656517007526,0.465616272756134,-0.0286730415433813,13.2310584519905,-1.16001429325415,-1.05618550479919,0.436380036124017,-0.627750550611648,-0.0884459971175688,8.7299576706639,4.28465858427407,0.83860440306677,-0.243784496219448,-0.298342611476896,0.376013562100967,10.8999711703817,0.663245381939738,0.843726393962848,WALK
1.53,0.347084146151979,0.611471550242708,-0.0378347970621882,13.174454082155,-1.7612431921374,-0.843953670299758,0.127110593520008,-0.612286715741762,-0.115671344111576,7.67969630884622,4.48011391572164,0.08431246880879,-0.197675144280136,-0.303402399771494,0.235415935389014,10.3344854016784,-0.0436076509883362,0.514265840852808,WALK
1.54,0.325374847806333,0.736363815958792,-0.041849355671761,12.9902576475476,-2.18235506062186,-0.58893106632674,-0.195471483595591,-0.533076900761336,-0.0392559368304678,7.27149264040497,3.36894751402954,-0.716155120679948,-0.127900150200289,-0.293461850853787,0.0966130502813639,10.0327791859744,-0.782409148606551,0.281824558584543,WALK
1.55,0.310225313638108,0.84082325289851,-0.030983862734739,12.8292624110763,-2.51131742643761,-0.167028211192597,-0.556985022942148,-0.452478334685256,0.0834686166512062,7.53988321901872,1.73163391618463,-1.48527884553943,-0.0228424145262535,-0.270815619080482,-0.0301737224630792,9.91924418619106,-1.30265486519238,0.187172623542953,WALK
1.56,0.361918871592431,0.959842329708071,-0.0096196462533373,12.5624153139489,-2.80675742024661,0.389912457976543,-0.839596484990849,-0.518762487658175,0.181506321712129,7.75471781621467,0.139658038417274,-2.41225768940536,0.102698737493146,-0.246541148045658,-0.134281491819535,9.99990325159931,-1.55641766822211,0.345280167760861,WALK
1.57,0.419096265037178,1.10921600468927,0.0040062915217803,12.4132453609071,-2.70544669884869,1.26748183311576,-0.888008523756049,-0.654427305765254,0.199326946760154,8.40643337691684,-1.75841013916046,-3.20353433021502,0.246972409207084,-0.213158368602746,-0.201609805447469,10.0543871892847,-1.50078489706221,0.763202705476551,WALK
1.58,0.493482246050145,1.26119598410563,0.0038900115318307,12.2145694568518,-2.63969247925427,2.21870555692658,-0.812430909738305,-0.757460411323554,0.198479291595057,8.69640305879557,-2.90804058495765,-3.93585979335362,0.364925130389919,-0.187511925053229,-0.227690379059164,10.0353759786979,-1.26527815005652,1.04152160778202,WALK
1.59,0.644538171741529,1.54346302412265,-0.0133176590606285,12.2996635886917,-2.36947892092764,3.00948986436988,-0.668809345273421,-0.895491580289821,0.180788233369844,8.36933895539606,-2.99445351347127,-4.72331632916527,0.460184881449766,-0.154124766019825,-0.22847420527539,9.90486346694351,-0.870799078626047,1.0285335597206,WALK
1.6,0.814260637170073,1.9248837311534,-0.0417879709809351,11.8375789789935,-2.95579686713523,2.87125866963564,-0.461892048717495,-1.00532780840384,0.107270310184455,8.04438552151218,-2.61486892813968,-4.98466693256838,0.518890342019725,-0.133368440442078,-0.215576563973504,9.6237166567753,-0.204813484911332,0.867643466623664,WALK
1.61,0.851362147954185,2.34940958809004,0.0165875824340542,11.3311737769279,-2.36092096133534,1.28913860559137,-0.218064641033659,-1.01414451662113,0.0155590986017591,8.06787365913798,-1.86518547672143,-4.84192164681097,0.645613289014036,-0.118914141191052,-0.168254332750026,9.2131206257096,0.746624015193692,0.648774796395846,WALK
1.62,1.08043529605315,2.30361654773469,-0.0146129233668369,10.3259272706092,-0.576412565942663,-1.72952266471143,0.0451293008537335,-0.972303030555957,-0.0741964466582448,8.52656091957334,-1.3243679996163,-4.33928119215406,0.747685651680088,-0.0730828066402317,-0.100697365465673,8.89136100556623,1.69399057412397,0.814209316149074,WALK
1.63,1.39018449588621,2.07997749669902,-0.207624552628668,10.2994495178752,0.609263756343083,-3.92563718653809,0.238861805371115,-0.901183388232015,-0.113713326431285,9.09661368424003,-0.602634700165496,-3.57580641539006,0.776980157753342,-0.0048513574750698,-0.017477333847408,9.04339968185072,2.3758857613942,0.364054540184923,WALK
1.64,1.35837031348929,2.07021154976826,-0.493960918034199,10.065072033697,0.657442261866285,-4.37582548019817,0.274448448242562,-0.868690639345697,-0.128654929269264,9.56092540215523,-0.390399671604424,-2.81256088741775,0.837201000490761,0.0746460494395447,0.0781465389039257,9.19175695646862,2.77636728412197,0.582771678486007,WALK
1.65,0.926630749564358,2.23603346531749,-0.750730755272715,9.66946338713916,0.585141495609892,-4.95539126843684,0.22796028646811,-0.846846925125616,-0.140899390728718,10.1302495102544,-0.888327080656297,-2.23705744669253,0.80328710232687,0.0992803206737217,0.16901074729184,9.40640876047558,2.9541732864563,1.01064765897834,WALK
1.66,0.510314464333882,2.28593329259064,-0.897820543641546,9.78084025349765,1.43321662601802,-5.33867680783147,0.137797997659244,-0.832697597025942,-0.139620619430873,10.330881569327,-1.47270420714699,-2.34602789214272,0.713117078713743,0.130822274281469,0.245901589271363,9.58311619436526,2.94494508536737,0.981809372780542,WALK
1.67,0.297493255978771,2.25510461988507,-1.00288064414313,10.5283224862931,2.71383301438549,-5.38718676022805,0.0873645152900081,-0.821347208798578,-0.124246652419075,10.2302476289255,-1.78957677145853,-2.57866583109651,0.632346782998102,0.157350478462967,0.29150350118039,9.7942109531296,2.77196109190057,0.920892314166646,WALK
1.68,0.0869516104715536,2.2665534652614,-1.06709900941038,11.2975739287374,3.05596301001465,-5.59985947182302,0.0543743955825936,-0.806861298648193,-0.100336237987893,9.89306030551852,-1.52128855505298,-2.55078526785358,0.522495019359938,0.175760168048015,0.29886208178922,9.94701713231734,2.48024244199729,0.973308835950236,WALK
1.69,-0.186432921943864,2.3007177404261,-1.02824235395702,11.5448175859313,2.52086760681697,-5.76312312218314,0.0170059010630992,-0.804856539384761,-0.0696619056438088,9.2471477053789,-0.756763557542368,-2.43106603906991,0.400509328845361,0.178054829556245,0.263479268513578,10.0591061253134,2.1386447289271,1.09923582534939,WALK
1.7,-0.484182526021736,2.3193424123655,-0.920108311194213,11.4310162085911,1.86801675105492,-5.48846897929716,-0.0354362077447863,-0.811113047455258,-0.0568824524493096,9.13331767156409,-0.341452617238416,-2.51297669847108,0.289111915036089,0.165801852059859,0.196849491312062,9.95608615503478,1.76260007585966,1.07751199337269,WALK
1.71,-0.723871549442331,2.22956850485379,-0.804016810236454,11.7873981336916,1.58684519556453,-5.57987773141551,-0.157127415638766,-0.783377057668137,-0.035266633597229,9.16468205214879,-0.320112885656967,-2.59647822951958,0.20835310188108,0.133795887951915,0.110321178410117,9.79772389854495,1.37967706901302,0.93506893516974,WALK
1.72,-1.04617797294759,2.10390763104296,-0.737189261142227,11.4739704561313,0.890244490096429,-5.04726483654901,-0.298856004675845,-0.804064814843725,-0.0191880875263033,9.22440076824183,-0.224121707569875,-2.49847479873252,0.155098920687563,0.109116110507567,0.0006950741028491,9.74158722970425,1.18347236432616,0.751256436473621,WALK
1.73,-1.28198854875542,1.94262073361306,-0.71085702661556,10.3295307057079,0.0893332731964602,-4.61860340017173,-0.350393051884517,-0.798271596533748,-0.0145902821258854,9.60337583795785,-0.516533657057189,-2.31080200078908,0.122904286075259,0.0942333825928356,-0.104983583267208,9.72549961679775,1.24595316008049,0.559214623604992,WALK
1.74,-1.31994292535192,1.71885762483862,-0.664657338806275,8.94715770907755,-0.157474908610089,-4.10880679865517,-0.366407411270623,-0.759894853833237,-0.0086936602742071,10.0403565612039,-0.771351623908219,-2.09842672924712,0.116863466258595,0.0741060298743864,-0.191041455772362,9.76396560178365,1.50434785867333,0.446609731483427,WALK
1.75,-1.23035077426739,1.50659481157152,-0.630414975797119,8.34032421466622,-0.167260445161761,-3.57988103509443,-0.375582979163976,-0.736290958412153,-0.0145514401721618,9.99897045283348,-0.768342424339728,-2.14313286626337,0.0998525365705746,0.0642720881878939,-0.250463668008419,9.74727699023168,1.76702947871667,0.433477531120037,WALK
1.76,-1.0402141472681,1.31614715643728,-0.606288644147944,8.29091632129818,-0.287793861652187,-3.32143555123495,-0.379818465960135,-0.701097714415145,-0.0346392083218263,9.94171741208455,-0.503936760787691,-2.32722413804095,0.0793476763274497,0.0611731648311682,-0.275347456541756,9.69203545142605,2.05419917877132,0.359530999976804,WALK
1.77,-0.877213380429387,1.16632123813799,-0.581694260250152,8.63625053279929,-0.446299380459976,-3.47861751503361,-0.333084612705952,-0.653485576096286,-0.0634345069717034,9.76513399757956,-0.40309411024239,-2.37521832430334,0.0571657539423143,0.0692145183402925,-0.270429288850343,9.62172308589918,2.36696289130702,0.332322444802757,WALK
1.78,-0.797262883573968,1.07504020425201,-0.546249137161204,8.63375615830732,-0.637271593836963,-3.5018188970267,-0.31167159523953,-0.614140382271283,-0.0873485615274831,9.55820949654828,-0.334622276294048,-2.53414255032263,0.0244827511173896,0.0702349778729764,-0.23668371307759,9.52191807458153,2.45771997569143,0.467156019978165,WALK
1.79,-0.763507087674951,0.974831457380048,-0.510771057529487,8.23579542839817,-0.885891561944844,-3.25228250908672,-0.314722232471912,-0.591230327352086,-0.0985822449620787,9.33510011036054,-0.563058856573743,-2.77452774035381,-0.0245282980870235,0.0552336174413606,-0.191296188892202,9.38828167381923,2.43981818584921,0.468951177131279,WALK
1.8,-0.773797933990738,0.835460148269214,-0.464790599042384,8.31845409329233,-1.14654084944721,-2.83286494555091,-0.329776873225584,-0.583499666807583,-0.0977314379527381,9.10664773145267,-0.783575895818378,-3.15463682169365,-0.0739627767018713,0.0206517011697107,-0.15196773620458,9.28090459487825,2.23082229625959,0.282471505453389,WALK
1.81,-0.831065601681532,0.713675717484963,-0.423373319681138,8.3329372932196,-1.31815304056787,-2.69578376297771,-0.323027706059192,-0.588873814431086,-0.0774985442135948,8.85684380936216,-1.1935745712425,-3.3742457202175,-0.109791326936987,0.0037824762452947,-0.11771915959469,9.22383903208372,1.90332512258664,0.234174633679327,WALK
1.82,-0.864921586360682,0.65515505122636,-0.428172091251658,7.87859534342819,-1.24508689464115,-2.59443403398895,-0.274059003906529,-0.604504370570234,-0.066278914982624,8.72228408006283,-1.59570923167029,-3.19548872475485,-0.109791326936987,0.0037824762452947,-0.11771915959469,9.22383903208372,1.90332512258664,0.234174633679327,WALK
1.83,-0.854741916725384,0.581258200799304,-0.423766044630765,7.60276947038972,-1.21153833117993,-2.61209864717853,-0.199141181994386,-0.609139946467363,-0.0590087186193978,8.81995867315839,-1.49364302918443,-3.11829812654637,-0.109791326936987,0.0037824762452947,-0.11771915959469,9.22383903208372,1.90332512258664,0.234174633679327,WALK
1.84,-0.853440906977426,0.521064309610753,-0.386211241318507,7.5352851874269,-1.22383529581665,-2.50202581681313,-0.125134562996462,-0.607146676640453,-0.0747758342713337,8.82855463362541,-1.27605349552191,-3.14764832570329,-0.104444187827311,0.0309940339645103,-0.0637415524246318,9.16664696961283,1.17901889224279,-0.109031003454496,WALK
1.85,-0.886595730973813,0.475259571312169,-0.353777143572446,7.51512474791463,-1.38018813298382,-2.29954624817654,-0.100788960210112,-0.602893240206166,-0.105810655746349,8.9388464716308,-0.95340918660546,-3.3269044477102,-0.0033101829440799,0.111888062847008,-0.0052078419483151,9.02883910729967,0.694451763749381,-0.234367456622709,WALK
1.86,-0.918910924703588,0.419554301037258,-0.344795697579226,7.3778336326099,-1.40600187024949,-2.0779647666326,-0.106471434412868,-0.593417804082967,-0.126747007956413,9.09369444264897,-0.499037572023526,-3.41360882208531,0.0643878085674031,0.150777435110993,0.0186732356070838,9.0459467736799,0.626315251748572,-0.245802773165187,WALK
1.87,-0.900578386008961,0.357763551703583,-0.349909055362117,7.28978573731049,-1.6429621207532,-1.80809240374102,-0.0753192744274756,-0.569876109347844,-0.137439403926801,9.17318830530372,0.244333442171422,-2.97385036181231,0.134418114604167,0.173571609706391,0.0454079648927821,8.99270266548767,0.808085211986411,-0.295309769710511,WALK
1.88,-0.835696539357771,0.322795686748975,-0.379923854248837,7.25311476658851,-1.65485474752824,-1.34381472552119,-0.044058399182309,-0.546593444381062,-0.135902683991068,9.2118303440004,0.678617589627794,-2.33610559989575,0.181196549471806,0.192733251332413,0.0756705044612727,9.00851183891744,0.995201754500427,-0.13540650746371,WALK
1.89,-0.740364607244455,0.332635625976734,-0.403213051515142,7.44542319711058,-1.39536130786045,-0.810926803326828,-0.0836404845131688,-0.538856253729341,-0.13441454082628,9.254529787269,0.675260741035759,-1.99564621469935,0.183655603412757,0.203653466674016,0.0960930916936463,9.08157148629086,1.25334528938601,-0.202164443645209,WALK
1.9,-0.61247779166012,0.374030593447141,-0.413324834719082,7.87265387938955,-1.00668330980261,-0.302038911516959,-0.181642099639239,-0.566904984288484,-0.130538530321426,9.41925045538228,0.275412724003917,-2.02252546145389,0.162221470761476,0.206493495749592,0.115592311674378,9.26265432863407,1.47042063253106,-0.0991894014421452,WALK
1.91,-0.542321489414117,0.397431333564589,-0.400170541495619,8.23189646819472,-0.542361803834146,0.206333400483855,-0.246684551293447,-0.582204654177371,-0.131587442421323,9.71389381616886,-0.307564436108367,-2.28417817628903,0.115772978301567,0.191268352083593,0.130161703269428,9.45600033180896,1.6062140751857,-0.039422655325727,WALK
1.92,-0.550772977920999,0.348046289355965,-0.355461536486039,8.71774920314881,-0.359928079555276,0.494624814467083,-0.244851969422045,-0.569588680501201,-0.12023882351151,9.78163482399559,-0.607768893448142,-2.41116066414339,0.039183712338158,0.165434558973145,0.133864571575282,9.55152291536985,1.69179119718664,0.0418825971841284,WALK
1.93,-0.556400491653219,0.260069381387347,-0.279372311785706,9.00023801247787,-0.709350245154063,0.90110051571126,-0.221115998941519,-0.552396796077758,-0.113708164414343,9.69529080171563,-0.662924123120688,-2.61225845486486,-0.0391349913154487,0.12722679665555,0.128635043588137,9.61436498051464,1.63654529106993,0.123861255026558,WALK
1.94,-0.511756684563843,0.131816130386478,-0.18255824151682,8.89131880996887,-1.1511534514961,1.18315675272691,-0.260960824577077,-0.545615778605735,-0.110289368528578,9.58761645103617,-0.757878031088049,-2.7320478532057,-0.101168071664195,0.0808657654340698,0.113716316009426,9.54883121108713,1.48304377078899,0.088240069545344,WALK
1.95,-0.448140172040002,-0.0266549559689274,-0.0819034481297033,8.64458145317304,-1.44722557798277,1.2367078053079,-0.319289810408346,-0.545784387248026,-0.101503497008957,9.55622828435891,-0.902573751100404,-2.78349337766419,-0.147490812538579,0.0231497313224134,0.0855341620103873,9.43676045465079,1.28875765506321,-0.174819224111878,WALK
1.96,-0.426775637719785,-0.156352271810843,-0.0047920681525371,8.9386807382858,-1.36775492385483,1.00468406066825,-0.299300067038823,-0.533682103398947,-0.0891436516412936,9.4463383146586,-1.19959653864755,-2.54954868110249,-0.155029918991127,-0.0159263710408785,0.0562220283014362,9.29596680832553,1.24546307419721,-0.376837670115981,WALK
1.97,-0.469097991588941,-0.176848668478611,0.0215678286151529,9.09838258627959,-0.727879039063807,0.656208772655301,-0.268813228629647,-0.52634112885735,-0.0764983500454587,9.22589658341977,-1.24610598035793,-2.25580835861478,-0.158405309292759,-0.0490331211273491,0.0282507213964002,9.08829952424529,1.25840645864446,-0.682763402139961,WALK
1.98,-0.515387928446763,-0.138241896664427,0.0044804974700099,9.28252133452408,0.0955189908036397,0.646624745257985,-0.275978023751072,-0.537220195285863,-0.0665797025011016,9.08750994000809,-1.15333114380409,-2.21317849773247,-0.155638974719274,-0.0808876076164721,0.0093767158248047,8.99886924599543,1.29081483625543,-0.770601236754886,WALK
1.99,-0.569104639916285,-0.0959006052349095,-0.0731444553072767,9.5428366096824,0.696893511505624,0.860836512488562,-0.303411208888514,-0.556911376883797,-0.0918466992065162,9.14400831890803,-1.20452279238491,-2.6072990886638,-0.150611202249191,-0.108829905457264,-0.0074137739686828,9.05457153217171,1.33386856643801,-0.756657496991178,WALK
2,-0.589071173375503,-0.0452376822031502,-0.199173311589407,9.82084245942717,1.16152984360996,1.4385739754946,-0.340162240015049,-0.560685833248051,-0.112232894692733,9.37794815659892,-1.23440679073883,-2.79914809478486,-0.141622706063686,-0.136568696671752,-0.019093908393526,9.20236388928107,1.43652104731376,-0.799553582880764,WALK
2.01,-0.578033386594901,-0.0009854727057979,-0.341783010112502,9.97337125963126,1.42607148164492,2.0586564275531,-0.340180129879133,-0.562340106088771,-0.118449349036764,9.45034929503903,-0.980895447376404,-2.7672556891286,-0.135717029652661,-0.163903813624395,-0.0249731378908404,9.31591965223522,1.48072176066965,-0.747010831359473,WALK
2.02,-0.536413425081397,-0.0727302282202648,-0.406918853556398,9.94678929259613,1.24864680914452,2.11106099135758,-0.338764228130579,-0.565857182405886,-0.127703861674895,9.49463884841318,-0.592440962658053,-2.68400860359914,-0.129427609972314,-0.184948662955824,-0.0325385039244924,9.47747137366099,1.47910241500324,-0.939394200730562,WALK
2.03,-0.375834269307823,-0.17625023864628,-0.359146890577324,9.80821886564439,0.659484378593318,2.14534195759674,-0.34399053979993,-0.578154872037972,-0.142101078998719,9.48997396843584,-0.286554398042147,-2.54853163795686,-0.120184846212905,-0.196050049878369,-0.0362785828025083,9.60970092038642,1.43052059191614,-1.01496296155359,WALK
2.04,-0.045161146495351,-0.248027393896221,-0.251375170796731,9.40672873042921,-0.161003846141646,2.41956472570437,-0.349571865755155,-0.580366194087916,-0.146551353308371,9.35474153322348,-0.231939260366765,-2.31674509847916,-0.118342613149471,-0.191145317992553,-0.0388577873799951,9.68578061288669,1.30262265378684,-0.976833573171082,WALK
2.05,0.262942687787834,-0.375395020611215,-0.141655325367041,9.31308875472462,-0.521061008414171,3.11667888127632,-0.396501939746103,-0.592039439841347,-0.158079059217475,9.42343721800083,-0.0286845103491164,-2.56016536715966,-0.119203818021531,-0.182442726350137,-0.0353918488603117,9.71853636614782,1.22701667402545,-1.04279601234324,WALK
2.06,0.395030530920055,-0.426279776480047,-0.0808845138475801,9.83683955649251,-0.162499453803232,3.94232205372158,-0.419203580045323,-0.586435415224308,-0.183657807967162,9.54660946109677,-0.0472279323891877,-2.65385149813389,-0.095680768629164,-0.163078409031233,-0.0295013060725431,9.66232509273411,1.22711674303835,-0.957368021492307,WALK
2.07,0.344567176946012,-0.402399818322909,-0.0599700581734915,10.0594316398374,0.25884865473641,4.35643280915035,-0.399858034048642,-0.562866799059116,-0.204253561265877,9.69173143806995,-0.441609710262252,-2.46419847601647,-0.095200900502857,-0.168840745038519,-0.0168845928256081,9.55997056308633,1.22408164404408,-0.972924935264994,WALK
2.08,0.21219567775111,-0.409795859377896,-0.0864603435857153,10.2920719208208,0.508972272952564,4.22343103222545,-0.391629006534024,-0.541344964251315,-0.225436863959722,9.90667459254819,-0.422738554796721,-2.37551132646686,-0.0812590735352382,-0.186283716660573,-0.0016867067188483,9.54879566201677,1.29574399609289,-1.16764853990943,WALK
2.09,0.108194216343215,-0.446848801884754,-0.14247327001346,10.4465276842865,0.429389732487845,3.39596003117489,-0.375207342031817,-0.491986973941718,-0.225865665736969,10.0394264136601,-0.649030576908521,-2.23359981920062,-0.0699130759396565,-0.201524691060955,0.0221844454460773,9.49512883223453,1.36277891106772,-1.2094455405366,WALK
2.1,0.0805636292685139,-0.426465468294557,-0.217027253387216,10.1396749938029,-0.347391867757434,2.37335320420172,-0.369630496660686,-0.427659658878568,-0.224987403180983,9.9409665124563,-0.622778150604314,-2.23018695010195,-0.0656304153508654,-0.216584861681619,0.046799082621546,9.40857489334988,1.4818181736432,-1.30268479477569,WALK
2.11,0.0372721460569945,-0.356043862729736,-0.264211770475862,9.59949621215871,-1.07202134021587,1.55438813891815,-0.37011012090481,-0.36453511762456,-0.209735864680868,9.96767911535959,-0.504989809820182,-2.37558840442031,-0.0777313375458954,-0.236736017798533,0.0734637666156556,9.3243906587948,1.657425885451,-1.28724817128615,WALK
2.12,-0.053156992992963,-0.294663006708689,-0.301500684188341,8.81353870409843,-1.01062348841461,0.537554559224158,-0.365237475055578,-0.286275643848703,-0.196044392881404,10.1256699014496,-0.262503204038194,-2.30065403616828,-0.0777313375458954,-0.236736017798533,0.0734637666156556,9.3243906587948,1.657425885451,-1.28724817128615,WALK
2.13,-0.0066801784606749,-0.324382098189855,-0.330285229305916,8.21347175366511,-0.162017095139876,-0.602581467847385,-0.364356370043408,-0.213394898556551,-0.18172976349502,10.271336177491,-0.192633238920834,-1.99952527108752,-0.111515597875494,-0.28111075178175,0.0841535334986858,9.21520546838409,1.75287598723929,-1.3667567310071,WALK
2.14,0.225783369566072,-0.437097330018685,-0.331766601961531,7.88194157421156,0.597202411305684,-1.60380907129944,-0.422767571494282,-0.0882151103115357,-0.171969064301686,10.4177164438478,-0.0726240945987304,-1.60101247544307,-0.14785712352097,-0.324135958310202,0.0869882287306985,9.16856315571884,1.97360326092772,-1.53355298771762,WALK
2.15,0.567423579798645,-0.59278933090337,-0.279290057775442,7.82801407064413,0.581883869182676,-2.35772554564231,-0.50973156186415,0.029838850476706,-0.180128527178733,10.7079818375385,-0.236995390295941,-1.48501784037409,-0.176294584869254,-0.342923863348469,0.0749627962665446,9.20876950820898,2.1573538997016,-1.418433930049,WALK
2.16,0.97870946438623,-0.776283012672635,-0.18419876143038,7.92272081610069,-0.159646181119635,-3.29029836387554,-0.507904627112307,0.104529483874522,-0.193449272558251,11.1111349518545,-0.511318799063047,-1.28620049916037,-0.21645065766659,-0.34558074353345,0.0379489268713518,9.36369477669642,2.15853078687011,-1.09062640338863,WALK
2.17,1.22724027226382,-0.976962174810055,-0.0552608292895176,8.16441171470671,-1.03919460620593,-3.41859941145106,-0.458934433397897,0.198353138910668,-0.214860776900052,11.5962167227297,-0.695694080079482,-1.19184633439062,-0.277010272054646,-0.357372983462111,-0.0132369781343679,9.76855197070516,1.97619108216046,-0.729625186572702,WALK
2.18,1.0297949641699,-1.13320024054868,0.0962186087729086,9.8469679324921,-0.961949018133716,-1.24811218920248,-0.345602487688852,0.312289353643906,-0.239717672261199,12.0196199660949,-1.07640083943555,-0.985335284840601,-0.324750559542002,-0.36710868012107,-0.0787598876098826,10.3482965823678,1.70733738779995,-0.570486955857711,WALK
2.19,0.441512254862885,-0.921001220923254,0.138863456366529,13.6751169255895,0.590822617706519,2.96498108557917,-0.234641756643873,0.447326728291096,-0.270315670933471,12.2277310198599,-1.58300283005539,-0.927980507457851,-0.343747432363027,-0.338573909801273,-0.143854758148045,10.9624726311191,1.33819078693425,-0.254016734597693,WALK
2.2,-0.0763706346758302,-0.505334541258373,0.102591055704358,16.6741549153612,1.88637572286848,6.85511677834,-0.103940426880826,0.583293284803425,-0.301754960599367,12.5730815096172,-1.8833881973207,-1.21104495533061,-0.338451506255464,-0.263925074002653,-0.208723723287077,11.5999852691775,0.913321686727392,0.25958789009523,WALK
2.21,-0.202057358223856,-0.31455728169871,0.0519121269656191,16.9311918785037,0.549778457059661,6.55725138430658,-0.103940426880826,0.583293284803425,-0.301754960599367,12.5730815096172,-1.8833881973207,-1.21104495533061,-0.329361373171817,-0.164860642302141,-0.293330479324665,12.31118869515,0.454587819384563,1.0636259218442,WALK
2.22,-0.0785205981008652,-0.411433560939013,0.0114950055197127,15.416230403151,-0.394339303615393,3.70524145117329,0.0277861833573977,0.74567205845848,-0.31701965260202,13.3267214031473,-1.73089464433676,-1.31345521367592,-0.295091811928832,-0.109345093667021,-0.401840436952413,13.0508367434355,0.0451068953327406,1.56118546095819,WALK
2.23,0.123943911977872,-0.570428773744988,-0.0326286621513139,12.7074024942529,2.06275688119518,1.11342263763936,0.144030481518026,0.979338977783393,-0.306676344166395,13.9973352206576,-1.43847264813471,-0.57885394225753,-0.157516347328931,-0.182472813722742,-0.487130889128626,13.3785224322021,-0.127036554389114,0.975587355656861,WALK
2.24,0.452367266199003,-0.812528005908469,-0.0937750357172048,8.8806451452324,3.037769955862,-1.40460749009859,0.227647472656212,1.27459855122966,-0.246359738304597,14.0686782265402,-1.38307743375653,0.584373885768246,0.103909343409315,-0.298880589865406,-0.508878273616149,12.6320888535705,0.0396007472693867,0.075910728321367,WALK
2.25,0.729612408343443,-0.951051976567005,-0.144839702993252,7.06633935431871,0.105128126368484,-3.05305790878485,0.303514992622495,1.61597342286821,-0.174478311786294,13.670181503877,-0.459958434071869,1.50969797891207,0.385649689912302,-0.31885271462838,-0.412354311431854,10.7448156333944,0.755594533646138,-0.607257679523135,WALK
2.26,0.866982863320979,-0.907867838315205,-0.176995917599151,6.78980334421245,-2.24447478420916,-3.27113926433542,0.495934042158478,1.95526679017256,-0.153815470210716,12.8531305897421,2.40797063730051,2.26537135654054,0.406675974763891,-0.208539324268732,-0.177865463773877,9.51731684167806,1.41861402821121,-0.461216723850287,WALK
2.27,0.991607030172086,-0.831813707434282,-0.147551836930832,6.62117709835918,-2.4444335451246,-3.58622678852318,0.695255382474615,2.21224432873547,-0.23615700254101,11.7207776291591,5.34359156624733,2.39350276256706,0.220270688506861,-0.136701763096947,0.0233435821525172,9.18681960613169,1.81832988364649,0.140631179855588,WALK
2.28,1.10529637028853,-0.790337930219654,-0.102939378700775,6.70856770418473,-1.30314364254374,-4.02312313944568,0.620978276385919,2.34404799529274,-0.360237320600195,11.4737307192811,5.99306290275526,1.740752627472,0.0139637981937076,-0.175138290632171,0.214475936381455,9.01016512134484,2.13313619547991,1.11570070406233,WALK
2.29,1.18401668702175,-0.834187865374599,-0.0456880359540087,7.69812496138812,0.354698973244567,-4.12238926578524,0.326512667071571,2.64491248889108,-0.455935851853369,12.1832261051238,5.59597331838698,1.80327048719744,-0.109967750306352,-0.219785748724432,0.337837635269845,8.7714768390565,1.96983910709997,1.04447735075414,WALK
2.3,1.07125571683646,-0.918656945978329,0.0421398235852431,8.9737854506915,1.55754122635485,-4.19807697333615,-0.18132325273101,2.8201494651562,-0.405837854690822,11.8989289482601,4.07868226369841,1.23423440850766,-0.14586646560227,-0.14910739484083,0.345418569340743,8.53098356265213,1.49412023305943,0.914836887444373,WALK
2.31,0.834903290526554,-0.974357308486044,0.0981512266868806,9.54886054833794,2.16250724837961,-4.17655710476806,-0.671227583737602,2.90035266801354,-0.213155118611645,11.8553925479369,2.62772847799511,0.212056177024469,-0.2083600226005,0.0002129169484759,0.2779187534818,8.60315857776017,0.770450075575595,1.15284038396053,WALK
2.32,0.542817131189296,-0.99268769395525,0.160466856223915,9.76573694053632,2.40652531058413,-3.96900108710886,-0.977020060770991,2.9574319064214,0.089485953519231,11.3918295899585,0.456274337544261,-0.93153200716058,-0.270280061434146,0.120095912419302,0.149402885234264,8.92619767693587,0.150368096146164,1.21490067437492,WALK
2.33,0.282427853354675,-0.975099618292696,0.248099852343813,9.86533006549476,2.66602390672002,-3.74382088810872,-1.23498640230551,2.8932145559272,0.409349064537039,11.7055435465976,-1.49034046949264,-3.25110839255177,-0.292062909490898,0.177733304762262,0.0015862438998515,9.559087094229,-0.288437210821496,1.01420508765266,WALK
2.34,0.0773900237876285,-0.956198384538072,0.328523499179973,9.56297423869066,2.77681865801142,-3.29513626457381,-1.40252173371555,2.79183926846962,0.681546688326513,11.8265604935404,-1.04710433494017,-6.19970540949235,-0.255323400209334,0.223358232326909,-0.14452472678607,10.1419473496829,-0.459654306438455,0.78493673293178,WALK
2.35,-0.0729698040294743,-0.928022624320958,0.364567136268787,9.49373950914848,2.35064431499653,-2.87185158431257,-1.26516567131646,2.74258396640248,0.888966074731424,12.5830591046432,-0.81637810919685,-7.82135326370746,-0.188594672867931,0.245165957807366,-0.261934381799495,10.5212238982273,-0.506477794590791,0.81904956240673,WALK
2.36,-0.151673263885683,-0.862786466964008,0.359512431436497,9.48068821356456,1.64599133712575,-2.48534765408623,-0.821662048211936,2.82072092667982,1.0476621627121,12.9591528190642,-1.51915370240374,-7.52728452746326,-0.162464015483424,0.220314778175533,-0.319938391901584,10.5796760365708,-0.501447545730322,0.78191394962054,WALK
2.37,-0.160470375239271,-0.813715600671041,0.337451843466006,9.40704688907732,1.31024579301025,-2.02869829651529,-0.483537195344172,2.86476572508914,1.0983196488636,12.7589857465384,-1.96608593841612,-6.82145445295908,-0.156913440115822,0.206117314559227,-0.318404363049144,10.4246124727393,-0.379121402725503,0.686111083569555,WALK
2.38,-0.0855650392887547,-0.803965724146872,0.32531931100885,9.47614214824821,1.26292910331425,-2.21834552548609,-0.222918435752132,2.84653854564191,1.03049708262093,12.3187339094294,-2.44053994576324,-6.68147573207153,-0.167546256811221,0.207635786369375,-0.254731617934262,10.2219122143671,-0.116256297264262,0.781842777406078,WALK
2.39,0.0139201867273442,-0.814384657974506,0.310516010613587,9.59201715699385,1.65987953852564,-2.38168789484199,0.10049784894585,2.7164230389339,0.923901526205898,11.9203957569039,-1.88274245058289,-6.28863383650059,-0.156925326257481,0.209921558228915,-0.166085719735457,10.1826129950156,0.265173595120263,0.823425777943587,WALK
2.4,0.137705968112824,-0.82571236236081,0.27972930492131,9.66743831313413,1.97900729735386,-2.08915885135923,0.462296607887368,2.55082490934174,0.836836215096244,11.1093843552498,-1.33148724299687,-5.1627255623447,-0.129572529645953,0.183404565030405,-0.0682825597365675,10.2055386163619,0.614378034745567,0.916102147716563,WALK
2.41,0.211701523877015,-0.820453855997424,0.249723269107072,9.81827554321372,1.88652469463877,-1.73154909331991,0.73237858343006,2.3757871052904,0.757833514056085,10.3570257004308,-1.05713600348566,-3.83221719847316,-0.0965867202215552,0.126289483499042,0.0226378794394672,10.2777171723273,0.778124915438537,0.9138182133349,WALK
2.42,0.270165421460947,-0.822619300531196,0.218664918674813,9.6178312804339,1.59321405133119,-1.63313887332224,0.911530553206165,2.21810716786695,0.725490270556788,10.2533917553883,-0.714547602442635,-2.78401507319959,-0.0837389103536907,0.0498027821536012,0.0949860653338277,10.1354338749471,0.838760383752584,0.756981737942842,WALK
2.43,0.36578080798378,-0.809839359360867,0.224453574414397,9.47912452596976,1.16031098278575,-1.63803995625869,0.897432581298408,2.12231535218937,0.713631958623808,10.2015689270407,-0.504310772395585,-2.27428145168967,-0.077783080037206,-0.0091858029051898,0.142802485704773,9.88665741311058,0.797384341448868,0.473866076309294,WALK
2.44,0.406510067844157,-0.778604484328272,0.243788176172198,9.72026416157372,1.06798968489813,-1.4158779346459,0.780177580953499,2.00476132711234,0.684292155162991,9.86331691687758,-0.513644522176165,-2.4478934616188,-0.0694510035641035,-0.0258952489453995,0.180311706410738,9.7375239367237,0.608816287052654,0.0935262456400619,WALK
2.45,0.403438829731242,-0.716867281197433,0.240938519360979,9.95259199496166,1.16737233902548,-1.56601246213597,0.736864541062129,1.84679661091023,0.64204521873315,9.28079134042569,-0.575805102224533,-2.6177600205616,-0.0469190855343156,-0.0168843828453942,0.21217359168089,9.66989448512953,0.405284842768828,-0.161954892872052,WALK
2.46,0.378082923841115,-0.658169910127094,0.217327564062146,9.66205587784197,1.02502150400792,-1.80611008652542,0.810932326893848,1.68313217754166,0.601150623432182,8.49589456218009,-0.264180707949361,-2.77919290030498,-0.0363273301985468,0.0206889029994288,0.228795275328795,9.60348253134765,0.145330930121271,-0.303568957702917,WALK
2.47,0.306062639351407,-0.603048308543107,0.196953717880196,9.32792123757605,1.1335805151278,-1.99419209792846,1.01037084545602,1.53405350766612,0.564459016292288,7.99875555965489,-0.0188551135116115,-3.11304410181611,-0.0324870545126644,0.0625102489859651,0.230774748673075,9.51623905230097,-0.0162440405757089,-0.233106118680744,WALK
2.48,0.233301048565153,-0.561926394508102,0.182233472310583,8.96593485051724,1.41930217869607,-2.03109431503128,1.21939567969105,1.40712322951085,0.547357608439563,7.93853860335195,-0.424689592928117,-3.35566052465326,-0.0393747926969098,0.0793289599060802,0.222129361030045,9.47924924756513,-0.145866845250205,-0.161467606592842,WALK
2.49,0.20541195005226,-0.569842110585205,0.178010131283831,8.8864331398975,1.2275472023337,-2.48722638993772,1.4053102227932,1.27050455730623,0.535864527842854,7.8718462445541,-0.788366022793061,-3.19857743890597,-0.052882106898738,0.0996391379616853,0.200120156029092,9.41376857960597,-0.15286270455361,-0.11394433250066,WALK
2.5,0.196749193209566,-0.5608042348413,0.181748932775526,9.19892433226989,1.0545979235937,-3.18099744697651,1.62482157981128,1.15240618304605,0.463579258550938,7.54850653722223,-0.192805083737471,-3.24124001833803,-0.0754895765680242,0.130033250778523,0.169111126744805,9.33029842636699,-0.145646947597002,-0.037048107395735,WALK
2.51,0.17341890915329,-0.547915755279566,0.186711683701042,9.11524250923635,0.902658144558695,-3.27116986763425,1.84864957917096,1.01865599193831,0.353792856793796,7.17580549364695,0.735214438009075,-3.23366626369258,-0.0975972583754277,0.1496874667626,0.13496837349322,9.39168723166796,-0.052536528595417,-0.0946082178701423,WALK
2.52,0.117264276435174,-0.571818980855128,0.201749184984375,8.95608415779283,0.742076988715307,-3.23899542494583,1.97633204444123,0.898423550943644,0.246817248006362,6.81394559012534,1.57374751054122,-2.92148504807316,-0.127228445930154,0.166891316608126,0.10012115620385,9.47356317963725,0.0868744090599768,-0.176993209533561,WALK
2.53,0.0787607909688077,-0.601338941896476,0.22330717278567,9.02793639316014,0.674939317242398,-3.46687092956969,1.93629903943331,0.807249122378241,0.159518104987209,6.58301891864902,2.04350531454686,-2.30004827859598,-0.136794287902721,0.182642659675792,0.0675463222015059,9.46488651497599,0.188996286516538,-0.212809106974684,WALK
2.54,0.0879995889389809,-0.633081428088902,0.253420296267751,8.88907935375321,0.530258225216217,-3.62673973367517,1.77860888809471,0.723041120055242,0.112045495978685,6.43958146195612,2.3239580052715,-1.67518693154696,-0.155077914547595,0.196125256591261,0.0399441399016242,9.39274950129526,0.285265339083594,-0.197806731511481,WALK
2.55,0.085420259277117,-0.666168605216387,0.281093563588283,8.77833557357281,0.393326739204662,-3.59826076721156,1.53360862090125,0.619682064379814,0.0999339992078801,6.09266894459462,2.43053351839972,-1.4241877008724,-0.154263817505877,0.200819219302587,0.0119949704643051,9.26742161301035,0.3542978115179,-0.293130606926579,WALK
2.56,0.0998241023626888,-0.676903051394439,0.291972490647016,8.82439879616979,0.299837955729095,-3.50532379341882,1.24803323390824,0.526168956580577,0.0957482565120367,5.96186547069684,3.25980428390126,-1.00287644851315,-0.134660870303571,0.205847899528942,-0.010525386242739,9.05273008874128,0.321492721047802,-0.537185029720465,WALK
2.57,0.141308951248361,-0.703112482959364,0.286714767196456,8.75884095210629,0.468752323768592,-3.54440060064248,0.891990723384121,0.449811907177692,0.132886185117214,5.89373148846843,3.90312253168715,-0.650333249383973,-0.104440809944937,0.224875434397757,-0.0308199724477036,8.95703706056174,0.251966549919854,-0.596741445085466,WALK
2.58,0.171917176760477,-0.754840615572216,0.288806995249958,8.73550636022676,0.60913179927895,-3.12251402312607,0.509061589288329,0.377308603477379,0.211427601460145,5.93385028011092,3.38598394435401,-0.531312920897312,-0.0611198536449687,0.263871852382768,-0.047168146479414,8.93892001734064,0.134745933132952,-0.42669797539097,WALK
2.59,0.149100795914142,-0.769723502114867,0.297637223293901,9.02416278617576,0.683261155845475,-2.80756673496455,0.136733393669053,0.292635088458348,0.30005394809418,5.85142707150337,2.51163519363215,-0.487456768478323,-0.0214550440631956,0.299176220325382,-0.0599389517470585,9.00293620382744,0.0163519626644363,-0.328931557627408,WALK
2.6,0.0935271364288057,-0.762437453517655,0.300741150403782,9.31500380711725,0.722679774207818,-2.46315347302328,-0.185584504505115,0.130520383457721,0.372031691313414,5.88311357893594,1.64430478768924,-0.553127274372465,0.0343207935010887,0.28747820838717,-0.0694209365329803,9.10113151173034,-0.0222611953879692,-0.52736178677339,WALK
2.61,0.0697432862243315,-0.736526489318652,0.311849095914246,9.3783803273223,0.538448083511589,-2.43689457169035,-0.384204771488239,-0.0795493982995032,0.426333000429914,6.36369305146399,1.01730576747922,-0.396530544903214,0.102525624122236,0.273483191970475,-0.0797364952065655,9.25664186610185,-0.173310322373165,-0.573302926736746,WALK
2.62,0.0604487750878926,-0.733145228674854,0.321897429394583,9.4359870892548,0.495020035187033,-2.16556982095871,-0.488963422188626,-0.265496840022483,0.460212990136956,6.75012894076676,0.778678214793344,0.188784155400309,0.146617980625849,0.255502947737168,-0.0918359041100598,9.30219830229234,-0.276683355943011,-0.560410957112752,WALK
2.63,0.0577802567420315,-0.729859510886293,0.318628140526101,9.56516018931829,0.438052427007669,-2.2470662370912,-0.529136251412552,-0.42185751923234,0.461456962839938,6.86283564061358,0.589629409383962,0.557683863177272,0.187559708138885,0.231869121950445,-0.0944132209796634,9.37853818476068,-0.31514210480086,-0.532167138711597,WALK
2.64,0.0905001483843298,-0.704842264691553,0.285949191809508,9.57078256518481,0.124526626756347,-2.07801894314603,-0.448812654331804,-0.557322805963017,0.421109905412694,7.01592231559304,-0.186125606939666,0.294456975090883,0.187559708138885,0.231869121950445,-0.0944132209796634,9.37853818476068,-0.31514210480086,-0.532167138711597,WALK
2.65,0.142000089613039,-0.707163772350802,0.269848070665856,9.52185555962336,-0.106460859017138,-1.86666137011364,-0.307002359484712,-0.73200894345139,0.343211548062606,7.43841968086332,-0.646453891428438,-0.0235406506145806,0.199192682422282,0.191446300972252,-0.0864251274772506,9.36098123354326,-0.372865852041313,-0.474956579586202,WALK
2.66,0.246651187603661,-0.709470571651442,0.262906092187651,9.34185773439031,0.121976353567325,-2.07067131495036,-0.204512869043031,-0.860447646834258,0.279684985157233,7.9504273395252,-0.793267687601366,-0.0958375631687513,0.216061670679135,0.110284985415062,-0.0645371831931811,9.22413284536495,-0.249977607190074,-0.646821213597218,WALK
2.67,0.381699956502822,-0.706610538948329,0.262343934801719,9.20033721543362,0.466337803042417,-2.12109923627374,-0.122161353291135,-0.911843733767037,0.246033346763596,8.58699585644218,-0.810149379114817,0.312146397729299,0.23080847413573,0.0375428579004529,-0.0352543743629666,9.10424898809141,0.0103719036910274,-0.650956324208613,WALK
2.68,0.452912589557039,-0.709951087030563,0.270051632400879,9.36627027032376,0.923173002662886,-2.31336023116247,-0.0482106447807795,-0.933245546043769,0.240940297449703,8.9622913560021,-0.670226264599243,1.02024853445319,0.239829271959396,0.0053721567901568,-0.0253544965275683,9.09217307385517,0.186402367646511,-0.846597606770165,WALK
2.69,0.483014548125143,-0.696329994096951,0.280402318538611,9.63079193975191,1.23368424250139,-2.50672415892961,0.033332365212782,-0.950137502629541,0.21853235176928,9.19531980486915,-0.637791778431257,1.73439040678441,0.250983197794589,-0.0242097224511359,-0.0140275831760821,9.19398297676214,0.325055453942816,-0.858341147381291,WALK
2.7,0.497572706928449,-0.687188634571168,0.285895135015129,9.48549316243408,1.27959960208457,-2.37087988293317,0.101124321029884,-1.01531139397068,0.16181344834445,9.48987770604709,-0.499078305128845,2.60460777416142,0.264677347613742,-0.0494005538837624,0.0015939648321202,9.33431323888907,0.438227917362315,-1.03807936427215,WALK
2.71,0.506057535640865,-0.697720510690458,0.280311699389562,9.27251537704967,1.35198196197766,-2.41620015621016,0.0699405837425394,-1.14001175699269,0.102246154104904,9.7346666808467,-0.294524737572822,3.51657814173646,0.289451333741544,-0.0793820703805827,0.0060157203047722,9.43310323644684,0.540010536496924,-1.178806741448,WALK
2.72,0.532662123573694,-0.695017494991022,0.272880589228042,9.0443105597538,1.25102961953776,-2.48978745255922,-0.0143868423419552,-1.26683531376479,0.0714801619254126,10.2696288749768,-0.0098513757859595,4.20086741485274,0.29180490390114,-0.079550547111204,0.0147201138277422,9.53751453331302,0.554588514990386,-1.16611989008743,WALK
2.73,0.537412746189364,-0.681587777329296,0.262038431203377,9.02659691117253,1.03250543382295,-2.32683246908101,-0.0855832024413131,-1.26966909911547,0.0898331701995281,10.8087557305209,-0.0752552612004259,4.60713246625693,0.280494703683765,-0.0681353214606098,0.0210289411108923,9.68808386850901,0.588720385590855,-1.17449390824799,WALK
2.74,0.541453806240818,-0.651480588621534,0.259330112719732,9.40776425092114,0.845280927425455,-2.08459435784895,-0.0794172934693375,-1.17798508424557,0.111388114888403,11.1869417620685,-0.387016512601347,4.62726354576649,0.254351209926239,-0.0448837144617437,0.0305728360288308,9.86498794173246,0.505815203193834,-0.928786211804075,WALK
2.75,0.503460479284041,-0.608717150744478,0.272819587210799,9.86023199396901,0.879020987815453,-2.03566303551268,-0.0184811989319629,-1.10283196661727,0.0954409840457789,11.3838394902729,-0.331847607282842,4.55699143326441,0.198379502451394,-0.0233903008261045,0.0293400938707812,10.008476369575,0.402441023750361,-0.717450329931424,WALK
2.76,0.48374194263399,-0.528231329905037,0.271937080069774,9.89574313863589,0.913022241916111,-2.68499305465945,0.0246226862634336,-1.09507887036798,0.0611175382397712,11.2658356699803,0.1840205698552,4.57252874831263,0.136770423750959,-0.0073018066065589,0.0289377576459364,10.1276661063134,0.317881678824171,-0.733317491027263,WALK
2.77,0.473536348214649,-0.435062877883487,0.247225053608298,9.98930633378125,0.534949427269552,-3.16290661401899,0.0209484925149377,-1.13198523225824,0.0272979807020015,11.1928489087834,0.970018077911411,4.36030173756573,0.10108889769061,-0.0006002765748668,0.0256988991145713,10.0788664618538,0.258799190295939,-0.834274722125333,WALK
2.78,0.390225774021469,-0.364152624679027,0.23496451982608,10.1944176012585,0.0150280495105827,-2.48518332322723,0.0471724901151639,-1.13178168749713,-0.0044746198135709,11.1710306901524,1.83746203132238,3.80749640463406,0.0689261489762309,0.0105355938731957,0.017614914362418,9.99403859912021,0.1268579117748,-0.857907949163833,WALK
2.79,0.359366929311375,-0.333171137475976,0.230041572827855,10.1900706582223,0.0220135331447532,-2.25972059923326,0.128490742096194,-1.08526842445541,0.0075847323726686,10.8839769230172,2.28478490576327,2.99613229909897,0.0608447542588032,-0.0016448747782599,0.0002892626143011,9.91580788794146,-0.0139889868152619,-0.849117448468884,WALK
2.8,0.46155135856929,-0.306468090701146,0.232503389427744,10.2499010789495,0.307194622883096,-2.33926683038334,0.242096829914811,-0.947829112069786,0.0349495859762869,10.3294508573424,2.31147293903729,2.0004414320843,0.0672280066655448,-0.0393789869246192,-0.0123322844483717,9.77189744842796,-0.0689284132582527,-1.04223441633951,WALK
2.81,0.558365826500251,-0.26087423849058,0.238830469768198,10.4029487144752,0.599796512936106,-1.92615284121996,0.297484729165306,-0.853333350978116,0.0532433919027382,9.44747599373837,2.40214169423491,0.726474979590808,0.104177412788813,-0.0840156785778555,-0.0177223644787588,9.75786663194026,-0.12393581890227,-1.10008707268769,WALK
2.82,0.534605892011681,-0.198431877037749,0.248367608559941,10.4327921376057,0.859913228983193,-1.60783921092588,0.145870699949752,-0.922218163708821,0.0396077421903166,8.82707735214804,2.31030577118845,-0.766082188963554,0.13107576408913,-0.111383019367236,-0.0117219789716611,9.93778185298037,-0.0105348570342342,-0.760321073757655,WALK
2.83,0.470960585881854,-0.10854055792857,0.257981065813529,10.5255539563143,1.5446783383292,-1.53554478397704,-0.162640870003247,-1.17590115130565,0.0026998843953534,8.73582312536509,1.34961468352291,-1.93286632952222,0.146358955374005,-0.189386271227001,0.0294705121721309,10.3666125533773,0.416396204698044,-0.600524763242636,WALK
2.84,0.417637855927345,-0.0140894998271362,0.255363262624733,11.0430785851289,2.23080802382466,-1.54302809993325,-0.58998397383795,-1.57214401777945,-0.0172702667984559,9.61334990250988,-0.482841999315272,-2.56687962014512,0.0745694657774542,-0.292107895416978,0.118186075512855,10.9184720947401,0.709653378271574,-0.55564266716036,WALK
2.85,0.346887156009245,0.0939567572662143,0.249928685291599,11.7361260362272,2.49682733839947,-1.28220213355694,-0.990572220262881,-1.73772449438513,0.0166049160122887,13.1380989540692,-2.19257154661216,-1.50389507415893,-0.0306006109991986,-0.321469506434472,0.223921577171266,11.2833121278074,0.828724610462396,-0.328497878294813,WALK
2.86,0.209575946887559,0.198232965652746,0.229293477905752,12.3672239069992,2.40561754999142,-0.702375160767757,-1.07182587597307,-1.14052112328607,0.10989119987725,18.0573327954575,-3.9134566623683,2.81994639861559,-0.114638178248696,-0.302477480209869,0.320874944879459,11.5271270790652,1.03292693074615,0.102547650255099,WALK
2.87,0.0733790386090201,0.311052179607848,0.198232258669568,12.5405425330061,2.20174695216738,0.100588575223518,-0.46653435497032,-0.347722213853128,0.155162142641998,19.4170050817465,-3.5770895790133,7.66327492580907,-0.183794926077211,-0.287469595326334,0.410497145017243,11.9921909423106,1.42188757958985,0.884644208242288,WALK
2.88,0.013106888025219,0.435483455408138,0.1746604773301,12.6364112730014,1.85308032082672,0.735518022949058,0.250587814610046,-0.315097362934991,0.141383248903026,16.8871283521765,-0.768987964693849,7.53987137916564,-0.297711208914407,-0.284591956406237,0.497531474177912,12.5289836259153,1.79651027664184,1.50714974962988,WALK
2.89,0.0039062481664388,0.58035386379158,0.163051875659256,13.1122550321483,1.39687207376295,0.973039020993835,0.380313331703727,-0.642417741201188,0.0982004625246496,13.6667518233186,0.203381183722177,3.37150594556248,-0.45411952278887,-0.32421609704692,0.549028387797067,12.6775372537179,1.82602864661428,1.38591257342788,WALK
2.9,-0.0047161211194663,0.754669398147064,0.137551792187374,13.5399445961147,1.01531463514784,1.16885674263195,0.0104504257365524,-0.859452588480017,0.0528913842536712,9.97194556004562,0.308382137468845,0.356606460692638,-0.563358885181304,-0.34983528951536,0.528756886370346,12.288452818973,1.69455165986454,0.641813764675672,WALK
2.91,-0.051665035044711,0.982431365694308,0.103141252924558,13.9289449817184,0.691616131807297,2.10247498111552,-0.54206838267615,-1.04136568071158,-0.0406299303167791,7.74272235389017,1.4838487872318,-1.81270165872564,-0.55219082744774,-0.345307431984955,0.442366877451694,11.4108333466394,1.28842273541659,0.467820594222438,WALK
2.92,-0.199646836764458,1.30024070629576,0.0351414230786144,13.8106434392853,0.456375680526386,4.02877806309067,-0.70775948932455,-0.877149457174012,0.0206586767129717,6.6988542745324,3.99113105081011,-2.25224220358403,-0.473333090267979,-0.260388589713076,0.293454360070903,10.4032024123575,0.554077435308454,0.598537201218165,WALK
2.93,-0.354466221059675,1.78287405877732,-0.0463900629470218,13.9841264871537,-1.30833282204759,5.80191774073019,-0.584040476047475,-0.595928191285932,0.0801801954721657,4.86118261141987,4.33103745212175,-3.36676603052514,-0.310440982195799,-0.209299357815181,0.109103763695098,9.68238025271178,0.0308893518196193,0.640661545270794,WALK
2.94,-0.518787154343801,2.38795835271795,-0.12248670473984,13.5111544151906,-3.60397870746574,5.81084726106768,-0.669084216137881,-0.702560410358794,0.0381250476030135,4.79251269840419,1.64930186672358,-4.26298827908877,-0.0371317788678486,-0.2174496568947,-0.0371515109598544,9.04974007086458,-0.270876211395279,0.980903251108834,WALK
2.95,-0.425928763982866,2.76547956716188,-0.0385677234181947,13.367540412084,-3.60871323224695,2.36810072874978,-0.95790524999573,-0.812557204641969,0.0501335830069011,6.15986570305752,-1.25242216549611,-4.5778798488765,0.214990757040758,-0.343013012980442,-0.122263407350632,8.46140760083403,-0.694135219993019,1.31736164180577,WALK
2.96,0.218085979315661,2.68207365939195,-0.103831516400043,12.4112313098418,-2.668465769338,-1.04770960217258,-0.858800228420962,-0.93249617578472,0.0222026392664764,7.42401143376164,-3.3693135616115,-4.49766573818189,0.233386269348755,-0.429284278450423,-0.141469833321479,8.23190084494532,-0.883382129347022,1.40237740914545,WALK
2.97,0.624622008314363,2.81379719258613,-0.366107718932448,12.1928485396237,-2.8519001231759,-1.46786696792458,-0.56819115459282,-1.00961769077827,-0.0218066232841674,8.83355691797306,-4.79198414285794,-4.89495080694156,0.223674423317376,-0.368661473420002,-0.120841429588409,8.00127976416899,-1.04027192774843,0.0546221617323741,WALK
2.98,0.440926180738814,3.0489273886963,-0.567671448022652,11.3722664497833,-2.0966369696232,-2.2771735899296,-0.352808748493741,-1.11010264674819,-0.0511621084497799,9.33553741480452,-4.97644937672242,-5.41819025512671,0.362524226002227,-0.204690126792178,-0.0280013863027717,8.0288244251203,-0.787909365137234,-0.299177732383618,WALK
2.99,0.350311395902176,2.93118780115538,-0.743952886915428,10.0880889542831,1.08777886478671,-4.24679599532859,-0.061877045460798,-1.12306336243096,-0.0805149260179557,9.42576965496926,-5.16361059030181,-5.01741830260292,0.500809667775264,-0.0727096113496163,0.107994694954645,8.4390721473487,-0.169866935246329,-0.157718003467193,WALK
3,0.568387559056247,2.65484220446233,-1.00887435143959,10.5910781450917,3.45691585374032,-5.93360114923252,0.248088513310801,-1.12430033180788,-0.120374151236651,9.46785331548895,-4.14029942183991,-4.06151322858752,0.52214457368603,0.1015957419763,0.255635808830995,9.20675628584815,0.463533578382029,0.266990488909271,WALK
3.01,0.826640045275876,2.53409499715325,-1.17591782146875,12.0211935891697,4.13144848464552,-6.50236606040218,0.396254072061494,-1.14089691214911,-0.121790321423034,9.29168897914639,-2.39939251592776,-3.12535861026912,0.521320096793444,0.223482775062213,0.375137165287507,10.2573979627868,1.29645365383487,0.272052201543399,WALK
3.02,0.796955360356956,2.51013618845525,-1.15105936029029,13.0846611843685,4.27328147105577,-6.52315175351811,0.379753003024293,-1.13192024841852,-0.11961724638889,9.37041293481468,-1.07662713731182,-2.20378047242785,0.517946710416098,0.279016378000423,0.447187631017752,11.1676116124796,2.11188529631365,0.298697007609156,WALK
3.03,0.39980675282216,2.49227716380349,-1.05655170686556,13.9791619766315,3.98769884427138,-6.43140356021535,0.250725570495116,-1.05964651780402,-0.129748839912882,9.85464258268854,-0.0261397555371105,-1.35034143923366,0.494093182667807,0.276731197633524,0.443261510504967,11.539204790371,2.57879514881879,0.474765214615621,WALK
3.04,-0.223559335495051,2.54852094087627,-1.10630190758539,13.9706713711034,3.20741539309774,-5.51850554140177,0.0805546030519664,-1.00246215514843,-0.153232463686324,10.2116736206535,0.932086302395974,-0.729580374801668,0.446993490770839,0.264389938936567,0.362012189106598,11.5481410485092,2.62493546429454,0.559968978779063,WALK
3.05,-0.88510730414514,2.57324252317274,-1.19890324902334,13.1831669543544,2.89143573029863,-4.95737566712147,-0.120970986023049,-0.963187838551721,-0.142680430588612,10.6159468325741,1.10046764061037,-0.780595272961787,0.364756425324825,0.27833716416411,0.231757124699649,11.1949254977258,2.36223839907677,0.645216407417788,WALK
3.06,-1.43710245147591,2.55675719591948,-1.18250602541836,11.9260918994156,2.69740886966502,-5.0108270662191,-0.292906022784015,-0.923355199843301,-0.0737767727946595,10.5235526774322,0.960335276860619,-1.07045572427321,0.278375064455812,0.302713934253565,0.0936407079123731,10.6156509021427,2.02792060973259,0.793236778513117,WALK
3.07,-1.68714931082718,2.54244914883875,-1.04605258776153,11.1158196060343,1.71198680731411,-5.51627336286994,-0.42353353118704,-0.899287087235374,0.0039247379967824,9.58077263931101,0.832700762952205,-1.62359713155621,0.174054713794727,0.294423249745006,-0.028238039575572,10.1983790745368,1.57906772037384,1.05040156650614,WALK
3.08,-1.80955993941492,2.45436697170696,-0.899686805788918,11.3133545846173,0.169440560958328,-4.7403335472698,-0.486273115338331,-0.870133110762009,0.0241982991323234,8.99562553273112,-0.06880992720843,-2.26625215651121,0.0728284111582438,0.243329537447754,-0.123966881254046,9.81709014833409,1.12032460331662,0.958540919241313,WALK
3.09,-1.8651298284553,2.31803975836206,-0.8453932867738,11.0809051620386,-0.982038682702534,-4.19639013719352,-0.506996101340118,-0.875205522031482,0.0202897573039283,9.04695554820152,-0.855195815281853,-2.63161533157889,0.0114148764992534,0.185776683726012,-0.189738132725301,9.51440690112353,0.85601786352385,0.588852090509208,WALK
3.1,-1.75482144390719,2.15462784213029,-0.773104299755666,10.1560728759467,-1.26073116324783,-3.72503149858907,-0.442105210556542,-0.839231645703703,0.0222337698580633,9.23534252684186,-1.49132852060298,-2.95342160247861,-0.0075782989774619,0.15721599867379,-0.24053511823242,9.24691077898208,0.820133225472897,0.368195688463491,WALK
3.11,-1.51294058046903,1.93296145792323,-0.689861214193634,9.17325755125529,-1.42570896639244,-3.20872053092833,-0.36272907250341,-0.819646160068616,0.0079257243343823,8.82377889614461,-1.63819778455774,-3.37220378133166,-0.002489119220822,0.159807470156391,-0.282293914715281,9.04095040781526,0.924646924251864,0.13765856072888,WALK
3.12,-1.25399156840484,1.64334614086686,-0.629755591359344,8.29358628614863,-1.78822726832341,-2.95881891904926,-0.295891939329327,-0.825331901726049,-0.0346913885796237,8.57234516157485,-1.81689489953568,-3.4979537803406,0.0391823854686087,0.152021657887901,-0.30139969073395,8.92880977362985,1.09220197452162,-0.0400009995702753,WALK
3.13,-0.990990075436206,1.38181536378572,-0.627762277963115,7.52054797522297,-1.76179383619308,-3.05420960679131,-0.202781910077032,-0.868271539285391,-0.0897126410601317,8.48833968122298,-1.84624123712442,-3.46380758832609,0.0629799520088672,0.143071758988736,-0.299892529919664,8.86738479925927,1.21844583688941,-0.0953304012185232,WALK
3.14,-0.77728040558584,1.21169834093637,-0.633504409711109,7.33925005185633,-1.71468053510191,-3.13730949850565,-0.13403169979319,-0.912800711242334,-0.127496868494061,8.62635705164819,-1.34289656786237,-3.43010828173602,0.0582353598353272,0.13125894943436,-0.276017951961538,8.87704335395367,1.28900222259549,-0.257072208233041,WALK
3.15,-0.656653170545144,1.08464986017101,-0.64268640945725,7.27376148777185,-1.70523602669445,-3.20725090754021,-0.077883460519072,-0.950640312163779,-0.16027332678498,8.58485442216456,-0.898649781817816,-3.29586299864572,0.0630044071689993,0.132099757293377,-0.242024357440052,8.99945665836514,1.30885151812157,-0.567829538132038,WALK
3.16,-0.573982043935544,0.947803661764738,-0.618520100696955,7.15611412146841,-1.65136569587355,-3.21061383713891,-0.0336922195033414,-0.981678307841415,-0.209175105637221,8.86609808848207,-0.441219853429558,-3.17427934166277,0.074890632385174,0.150001266756994,-0.189764428327548,9.08871925706476,1.26619850321323,-0.575340432377788,WALK
3.17,-0.547528504903202,0.785638349641491,-0.541633702851275,6.95066030928923,-1.46309956821369,-3.04157268204918,-0.0335757832780294,-0.967915262128528,-0.220179688808133,9.17038021623754,-0.0150760566342719,-3.01485884260263,0.0935121024679179,0.162705023561278,-0.135865547485483,9.15975372189719,1.2266189580357,-0.666860659064013,WALK
3.18,-0.561710398866938,0.605495343570658,-0.460514509311209,6.47938816887339,-1.26926404642861,-2.84376688524341,-0.0516236078231503,-0.952588964365961,-0.198537399220142,9.140950554844,0.320164521347798,-2.93760161568977,0.120295488857497,0.192926070478226,-0.0706789948451596,9.08313215560014,1.17440823990846,-0.856066239904976,WALK
3.19,-0.609543589549637,0.441707752567722,-0.374487913800372,6.08733406935409,-1.1904564006245,-2.84197242765104,-0.0836795799177577,-0.958960895513149,-0.177394760847447,8.91005226322987,0.344571260749394,-2.69466113467675,0.147624371332732,0.218091523549027,-0.0120879261920348,9.00157997199174,1.06785939042256,-0.725772577105423,WALK
3.2,-0.628902080131941,0.292550134145299,-0.335856880696255,5.62059200838223,-1.48474113945909,-3.05817478139772,-0.134364117729701,-0.954750028795538,-0.153448953750571,9.09653744078867,-0.196479577099161,-2.59203329301621,0.149357051538326,0.245679850394909,0.0377542917402625,8.89332738802764,1.02236377209794,-0.623550789579306,WALK
3.21,-0.620038716327005,0.181462560371156,-0.369681284720496,5.23846434362548,-1.71059776052738,-3.09035741191975,-0.192040936792634,-0.950420350707506,-0.125591183320748,9.11629186869833,-0.466879175255367,-2.27986427214601,0.154228577286436,0.259909926799055,0.0794824226886369,8.87156444073639,0.906155229618789,-0.446829018799463,WALK
3.22,-0.600003592404964,0.0292670292838944,-0.435788620640144,5.06102287471039,-1.60903680530003,-3.07544961719639,-0.215379108899053,-0.960946894204087,-0.113526372932706,9.08515386523993,-0.736262311581127,-2.07426845194527,0.144906743110673,0.250813195619321,0.108819336263122,8.86112426543153,0.776549159584147,-0.439767188278667,WALK
3.23,-0.562361791566764,-0.114084881364646,-0.466007375345843,5.3641561871391,-1.5833207793922,-2.78548595512422,-0.225750503585474,-0.963188792364654,-0.123233786276482,9.29439108836318,-0.890287661705817,-2.13833109637511,0.135272887179707,0.230031201577477,0.127796291635051,8.80376112269376,0.766755846894115,-0.462498316798399,WALK
3.24,-0.56751751132081,-0.190681009210716,-0.458975278586214,5.42280674239957,-1.01861433178597,-2.39693411035705,-0.242079811378786,-0.949626459236608,-0.146530072360492,9.72358752276317,-0.628856970807465,-2.24043281906074,0.128948672612016,0.201831049840084,0.131505107267304,8.71445736353069,0.802363096793036,-0.303776756636394,WALK
3.25,-0.626034123002774,-0.234300419491748,-0.431976328555967,5.36058283738329,-0.2181295381533,-2.03892201755311,-0.251969915131972,-0.945902755252662,-0.15434721552471,9.8206340690234,-0.467727830790763,-2.3180138334326,0.109230381887733,0.172171095854277,0.124805797034772,8.72551765626351,0.996391176510664,-0.322644714013656,WALK
3.26,-0.662851160904048,-0.25808176105535,-0.373952161461973,5.67278899375496,0.528241344203752,-1.70515101211546,-0.29639434555561,-0.951465129207815,-0.147138481072594,9.78307253856567,-0.341778026843521,-2.63232744702273,0.0864150264378401,0.128181842361126,0.118897116739733,8.65126250283708,1.13280821626422,-0.491394160640416,WALK
3.27,-0.710390300879902,-0.276678203315012,-0.269939456617625,6.23936350532412,0.609947255173985,-1.47878174067681,-0.32299173887635,-0.957889370659497,-0.13537460449245,9.69915155944003,-0.154729189680746,-2.21361117581771,0.0481676376705797,0.0786368754434708,0.103880331570735,8.61678186791303,1.33911747496858,-0.743100282835072,WALK
3.28,-0.766146611395059,-0.359869635278256,-0.171644698442352,7.12278056972416,-0.103255824007782,-1.16747789231956,-0.307395230795859,-0.953924953440248,-0.1240852568484,9.69005524202313,-0.244764066886643,-1.46818790161078,0.0184198339591184,0.0237968157855275,0.0904217327343432,8.66004577625009,1.5313349397025,-0.981344112322548,WALK
3.29,-0.719104941945438,-0.414270001109733,-0.073708818895314,8.10002732237923,-0.812348450837836,0.418626036640816,-0.356966318440189,-0.937054463755668,-0.120239713995854,9.77211493562995,-0.318226286610686,-1.67457084244492,-0.0188094013205983,-0.0191028050939488,0.0791356365932324,8.78801862286076,1.6576065567571,-1.14875427081167,WALK
3.3,-0.568588566520612,-0.451401510123985,0.0812170665114487,8.76133591064033,-1.52769820146223,2.02124444564903,-0.436795632406003,-0.905457342202163,-0.105729895347839,9.94056024226227,-0.256996131498021,-1.88555305935448,-0.0581130588416917,-0.0481930411709611,0.0689089171957353,8.92191184771393,1.74056886926925,-1.15024110382835,WALK
3.31,-0.41480686762387,-0.55942247310393,0.228529520065451,9.136569750595,-1.88024632531285,3.08327130490825,-0.450780302758987,-0.844391758691444,-0.0977762482918332,10.1986891849629,-0.394753504960232,-1.73398600504692,-0.0999866645779772,-0.0630283511521631,0.0529478403939381,9.07387780365027,1.81103660338514,-1.17864088264164,WALK
3.32,-0.44305438971828,-0.669157780876238,0.270712200653868,9.30523395834244,-1.32547618073015,3.99659753095603,-0.473462557959136,-0.784953371802009,-0.0883744484452445,9.94514721289877,-0.701475010234913,-1.70894656147492,-0.13222853401429,-0.0693133326291793,0.035866708524026,9.27553232489888,1.96174524973723,-1.12112597603707,WALK
3.33,-0.563796202827433,-0.679979956274762,0.167680233397646,9.74134902425545,0.415220847401903,4.96586141642075,-0.523709659673748,-0.742863601265603,-0.0895424930499252,9.63457900318091,-1.27912077836648,-1.83596742429522,-0.137878248811976,-0.0590437887037655,0.0192057088085017,9.53413202526952,1.99403568622251,-0.980441309708998,WALK
3.34,-0.603311614832696,-0.603769429564888,-0.0470907934473012,10.7875792001332,2.58568002892464,5.78506252542281,-0.544354457395783,-0.703525345424479,-0.103095481160572,9.643756562,-1.60292138312354,-1.99952570766392,-0.163310374718702,-0.0482454904894084,-0.0009037375196011,9.87896085933764,1.9174139332401,-0.740739437614444,WALK
3.35,-0.535479750514313,-0.570290380769551,-0.338572272607689,12.1476818774982,3.66757389801572,5.37393695254113,-0.538221171766737,-0.64859171856272,-0.123171652101027,9.99547950373171,-1.80486929312586,-2.14233871560515,-0.227570675401999,-0.06407009621831,-0.0263249783008002,10.1687697641204,1.59390333746822,-0.892628823211261,WALK
3.36,-0.315634042170175,-0.77024757937263,-0.493825558320265,13.1005351078048,2.25022044599602,4.23175415294551,-0.478445755240041,-0.552739338805751,-0.148819781019195,10.4872863502404,-1.60021472792815,-2.29277127896498,-0.227378721862966,-0.0912655037461936,-0.0529008757410148,10.5722532888324,1.21575716560446,-0.958707944242591,WALK
3.37,0.105348929499634,-0.86803495764924,-0.471409680464986,12.451253792657,0.536597465098153,3.87852070675304,-0.39303695576765,-0.452415128251102,-0.162919732087781,10.6916107062668,-0.923481981996808,-2.69423860431817,-0.258025464745645,-0.0863931964914299,-0.0831270282319323,10.6759950974826,0.918243713596866,-0.820311692392778,WALK
3.38,0.442613758850549,-0.79701037294654,-0.354803333134484,11.6945406949797,0.12821314092061,4.79208707491126,-0.366853222923935,-0.381077209338266,-0.154346474216738,10.3736471574471,0.0198464195849256,-3.59565302317252,-0.280735448564949,-0.108159444340766,-0.111839974603345,10.6294263070234,0.713845631113567,-1.06816487693258,WALK
3.39,0.423808913386911,-0.629309998141836,-0.264177447531888,11.8009111025627,-0.171467736761826,5.38439239051192,-0.425168722503963,-0.333218851270698,-0.124420163736372,10.175399452541,0.743609803752634,-3.40874407593001,-0.251237697073111,-0.105503704759533,-0.121592836687687,10.422709147358,0.661728283014344,-1.18695872834533,WALK
3.4,0.267151820949983,-0.344016497409522,-0.256996618487114,11.5835734493336,-0.987049913115227,5.28251007980747,-0.418207817522826,-0.309885708664469,-0.128221380526049,10.1251443753394,1.24834794600473,-2.28895065438793,-0.214635422287456,-0.148838669522885,-0.118150162120608,10.0856611625774,0.751441101094989,-1.03721639827813,WALK
3.41,0.165545259216337,-0.252749644551034,-0.277008422306732,10.6632212495185,-1.23190765785218,4.20064198096552,-0.472604620648559,-0.292141644967444,-0.157503000738763,10.2190450293839,0.886976086744918,-1.6362301722582,-0.165503866489839,-0.222058704939304,-0.0996555097786213,9.85798554983017,0.874150247710173,-1.65643417869731,WALK
3.42,0.23643555646618,-0.383572243545441,-0.291536317384803,9.62663269929612,-1.22183349110658,2.91825357175261,-0.639846364992467,-0.26858852244518,-0.163472753434839,10.5901932103611,0.39313047748886,-1.58404803675408,-0.14648217925788,-0.277534009773064,-0.0788264060845539,9.6290077014156,0.962420882685318,-2.03421696463886,WALK
3.43,0.427117596289171,-0.448539796118206,-0.348969091594798,8.6817067143767,-1.10549161193445,1.19097145491071,-0.723522326752158,-0.189047878474327,-0.180838042042251,11.1148896030936,0.170740728335809,-1.42069194331071,-0.16116289436957,-0.32862521780257,-0.0595865736526362,9.44150069885269,1.11039131354058,-2.46100701279239,WALK
3.44,0.68169429713536,-0.604861180891323,-0.392439406237339,7.50157700180041,-0.196201880474063,-0.71979767562704,-0.67533961671718,-0.0680463155147158,-0.192586813312941,11.3528697457924,-0.0611077913809809,-0.889106445162329,-0.159901999136354,-0.341561480613724,-0.026195296692108,9.3615213977523,1.35740106639492,-2.65940457390393,WALK
3.45,0.991254220663741,-0.815314923467484,-0.382547532093725,6.98825174338507,0.973594055364074,-2.65864291059435,-0.613405400178306,0.0753414406132878,-0.187059253638783,11.6888571695815,-0.32901904529856,-0.359975417559085,-0.19314255950865,-0.291580673808658,0.0067841867836422,9.58610046604092,1.58135923743268,-2.29767457836235,WALK
3.46,1.28034488010698,-1.02126686889705,-0.290618253069695,7.12523723229788,2.07535924014054,-3.94522525497808,-0.584669935730384,0.222523445315357,-0.186452203254039,11.987192290756,-0.680108878397258,0.254453704572603,-0.257820630460794,-0.237593741576239,0.0237410640135106,10.0710011927489,1.70779412488332,-1.35004582147285,WALK
3.47,1.43045132126299,-1.27347393722019,-0.0581825842406397,8.10132399985445,1.23997793144421,-4.42063791626058,-0.586322333472858,0.382638118397795,-0.205194573518113,12.830475555306,-1.25393348032354,1.01837880519817,-0.34209888420933,-0.227750795968578,-0.0016586356480203,10.7492638885621,1.55288902884762,-0.474120321290454,WALK
3.48,1.41486538998306,-1.36588299016337,0.213564676173338,10.0578795559473,0.0000234734605121,-3.41174852193521,-0.538035241013753,0.576452774468467,-0.235332893339832,13.5922479463768,-2.00867281064609,1.9543091708467,-0.395977840548781,-0.257711643061456,-0.0735870058456895,11.4172152327913,1.44528638517869,0.119253910544754,WALK
3.49,0.81610851053772,-1.10773579500255,0.346468517898306,13.8876461786152,0.348001539477334,1.29827416148978,-0.456628892417297,0.813455765646319,-0.24630203048151,13.9628148870378,-2.55112939263626,2.63338981499832,-0.399778639854172,-0.180104219566081,-0.171727870065301,12.1541987603987,1.40386062808469,0.660951578097899,WALK
3.5,-0.057955078680888,-0.570450492965919,0.396277033920391,18.7689928721393,1.86876915247025,7.00645767842944,-0.264233305827079,1.13116538672173,-0.228689263934076,14.1172775503101,-2.6810207436407,3.02216479870804,-0.360303345983898,-0.063781952502264,-0.308265578648758,13.0329925359182,1.07418457160638,1.358081395124,WALK
3.51,-0.497504391779619,-0.162770325094211,0.43271008282625,21.3234367719363,0.909637916061021,9.37290734070825,0.0077609067427447,1.48305871848623,-0.228357678105737,13.961082302603,-1.87011428544176,3.13158145716603,-0.322933510508153,-0.0093794909839225,-0.484092915488211,13.7028538789686,0.427086173094053,2.01407993239774,WALK
3.52,-0.493342717120826,-0.304714776158296,0.260415724491095,16.5079280021509,0.649679163516403,5.97307980102614,0.207230919735818,1.84503153736356,-0.283268182737628,13.6557378776045,-0.119159327676401,2.59657244804652,-0.173627905001412,-0.0751413737463601,-0.635128293155329,13.3091891820525,0.0590056092712697,1.95048167273595,WALK
3.53,-0.229420294075806,-0.848176970267418,0.0066668345242452,10.3471227472422,3.95826510914582,-0.52913450603467,0.242197558413532,2.19247505046157,-0.346878682970322,13.7708429040747,0.718128142358451,1.74562916100467,0.074158785585077,-0.211821871625757,-0.670969487247845,11.695264661138,-0.0823258493573319,0.850347743959738,WALK
3.54,0.455002306015084,-1.27159009924493,-0.159480868480172,5.65207952861897,4.31201627952374,-4.67812028380631,0.31495044335977,2.68627362169826,-0.400061841073298,13.5525878451016,1.26164666688206,1.26900233724987,0.242273309971003,-0.238604026668231,-0.62799202104225,9.77659647067732,0.0372357481859711,0.19311891689882,WALK
3.55,1.03833096267506,-1.44103983280565,-0.203728474306793,4.63732250582719,-0.262329814105439,-5.44982248867355,0.34718442950576,3.06790794020737,-0.381808653215524,12.5401834626194,1.872189690961,0.758718835257656,0.20795044739525,-0.139354480332215,-0.52573638673713,8.39453604256927,0.185612514255881,0.276664714426194,WALK
