time,left_angular_velocity_x,left_angular_velocity_y,left_angular_velocity_z,left_linear_acceleration_x,left_linear_acceleration_y,left_linear_acceleration_z,right_angular_velocity_x,right_angular_velocity_y,right_angular_velocity_z,right_linear_acceleration_x,right_linear_acceleration_y,right_linear_acceleration_z,pelvis_angular_velocity_x,pelvis_angular_velocity_y,pelvis_angular_velocity_z,pelvis_linear_acceleration_x,pelvis_linear_acceleration_y,pelvis_linear_acceleration_z,label
0.01,-0.0830330444801574,0.206731379079561,-0.0551911966116636,9.68851081981299,-1.40818859209507,-1.53071402262824,-0.11414980038181,0.267790394732342,0.121354390941302,9.45563958927732,2.07077632869347,-1.73722009867097,-0.118938878181527,0.213489512858031,-0.0134965602624695,9.95710123840995,0.528883519656704,0.320163864290778,SQUAT_DOWN
0.02,-0.0984852574978452,0.225350153095435,-0.0608533206547209,9.63370330360663,-1.40320407768011,-1.54702671912789,-0.100296073545453,0.275400658733563,0.124883564308959,9.43140748644797,2.03300771691508,-1.64937572908493,-0.105885519084416,0.225861558338678,-0.0093480006172203,9.90200046654242,0.477763603770139,0.25971532616131,SQUAT_DOWN
0.03,-0.111717381956191,0.234441352806529,-0.0619697415814885,9.6449479419251,-1.41687357585896,-1.53632333619571,-0.106610106470801,0.289464443160983,0.12455350553539,9.517158830171,2.02650185722681,-1.66703431226259,-0.0971551017858829,0.240429403881808,-0.004990969089083,9.87515467300704,0.525355609261694,0.357011860809194,SQUAT_DOWN
0.04,-0.136106565316157,0.259529336670137,-0.0686703699511142,9.72188892121496,-1.47528675061043,-1.56183458052716,-0.123799833384339,0.325056578084189,0.134050617777257,9.59988803631554,1.96520403278806,-1.67917671812452,-0.0758868173702048,0.242661682672278,0.0039938051473001,9.88199405267324,0.627905972897364,0.39117008957908,SQUAT_DOWN
0.05,-0.150571769892857,0.277023668673065,-0.0848743683872053,9.62237604327578,-1.53221744752726,-1.52912472898907,-0.124953198467061,0.34494113107835,0.143840223990588,9.57959843916393,2.00001174792467,-1.63827275301405,-0.0565577233257884,0.244818286437192,0.00850962973965,9.86774837246603,0.720281714278658,0.480775547390828,SQUAT_DOWN
0.06,-0.146694628135726,0.286389707551688,-0.0891676934731797,9.60261856760587,-1.63671347246529,-1.45741765585489,-0.111334817403349,0.346955364465979,0.148769555838313,9.51721643755869,1.97077620970025,-1.60935309825834,-0.0612184112925917,0.239943182354516,0.0170695230559061,9.82707102883657,0.756272010964048,0.507269466004013,SQUAT_DOWN
0.07,-0.146637539587984,0.296311144767103,-0.0940226909629756,9.57115719752442,-1.70414869545833,-1.53064300676749,-0.0992831471023542,0.368876743406869,0.16040081386289,9.52851616586995,1.8012098329554,-1.64597867537226,-0.0796315224148074,0.250548950526457,0.0192900033971309,9.87033204323231,0.756517938679185,0.473698116967846,SQUAT_DOWN
0.08,-0.117877694187345,0.311851887418426,-0.101057952766367,9.59130854866637,-1.72206933132357,-1.49182367149488,-0.0858421095446657,0.384633553294041,0.169687973846389,9.57823221323334,1.76165072457161,-1.61800168652064,-0.0952961846658168,0.27401306113841,0.0125358377850168,9.83420193505253,0.655838326755859,0.469270872410315,SQUAT_DOWN
0.09,-0.0862547128469097,0.332744386405894,-0.115167273582007,9.65151316135864,-1.66624316161156,-1.51692893445234,-0.0582274881153128,0.406577822905338,0.179273483142723,9.58434633033878,1.85394253637571,-1.63040964924679,-0.0884806400753899,0.302008593937838,0.0068288348029377,9.83903621408264,0.544014306727699,0.611338828915981,SQUAT_DOWN
0.1,-0.0820502396344033,0.366415837492122,-0.128070116235482,9.78676404336737,-1.60257392742892,-1.55867508819498,-0.0395875021699785,0.432172719179866,0.190174800309359,9.59879100808716,1.89140178084929,-1.59132967253898,-0.0874494496791161,0.3013507585305,0.0006709822100125,9.78293092071918,0.497386593840205,0.731398088741436,SQUAT_DOWN
0.11,-0.0894674382692933,0.402982391688724,-0.14362105070136,9.71986431796189,-1.58182771011272,-1.47058091157555,-0.0220544532150819,0.464531120154746,0.194487306318639,9.64656579689384,1.86190851116008,-1.48097722250774,-0.0715221298975092,0.296896222285894,-0.0062927734497356,9.89913179160749,0.48106579712992,0.718538814339651,SQUAT_DOWN
0.12,-0.0932642273058969,0.409549825905821,-0.157806729275426,9.57281579243935,-1.57134918477568,-1.41566241944998,-0.0255051483112077,0.50477956701362,0.19286610528389,9.73743277294459,1.8462891231712,-1.47738130140984,-0.0517864808205285,0.306093001814913,-0.0098817600858213,9.9304641678223,0.474925386834838,0.619404550344788,SQUAT_DOWN
0.13,-0.0785700263257333,0.400758526156086,-0.168088960003976,9.53547455671346,-1.48805880339431,-1.31313442021344,-0.0074924340049235,0.530200916425448,0.198325277896521,9.73287321404905,1.89468134636746,-1.4242295320409,-0.0510655924402618,0.318746641603818,-0.0046000602314903,9.97095567022665,0.457875669171778,0.621192794286181,SQUAT_DOWN
0.14,-0.0597501201699341,0.419600168479174,-0.172056486672835,9.59100803866384,-1.42210998889082,-1.16266830970685,0.038849109380543,0.54033770951476,0.19265601707976,9.68383370640783,1.92851618439448,-1.26001457159147,-0.0565393737486175,0.353798994420326,-0.0020803763713165,9.89701365881958,0.442261950549083,0.742811158200375,SQUAT_DOWN
0.15,-0.0448654335749684,0.448920557454938,-0.18135999050072,9.67423144087326,-1.35451001824742,-0.989889332389293,0.0842887634247402,0.540787830453073,0.193700590832027,9.81577944673422,1.96833329163137,-1.08600053136165,-0.0671253002945195,0.39852167268504,0.0063627533863217,9.82097504908356,0.399590300714766,0.965325779070368,SQUAT_DOWN
0.16,-0.0554683683416833,0.47526517892226,-0.188704271532079,9.79781018477039,-1.37351955960713,-0.776985394800217,0.111253251931322,0.545831226727954,0.177786675998117,9.95650681755636,1.9944670104116,-0.962944866989031,-0.0764107584415281,0.419903991447678,0.0164402469517593,9.79585636899163,0.478255554130383,1.09274329791014,SQUAT_DOWN
0.17,-0.079053897070441,0.543518059059585,-0.20439362505119,9.99490193041313,-1.38345524815452,-0.576321189105483,0.128624285891814,0.565617217855412,0.181158302792483,9.95977042532467,2.04364346379303,-0.860228265497819,-0.0764107584415281,0.419903991447678,0.0164402469517593,9.79585636899163,0.478255554130383,1.09274329791014,SQUAT_DOWN
0.18,-0.130147624097553,0.631624972310246,-0.211367176804107,10.1400707053143,-1.40243960729075,-0.383493865888798,0.13770224755835,0.5802839330364,0.195597068013602,9.88203868610295,2.02168381349561,-0.788809021241312,-0.0643696721891466,0.424750876781852,0.0232390911585403,9.77204580803705,0.582500245620009,1.12398095901547,SQUAT_DOWN
0.19,-0.184465952200987,0.686550972025854,-0.21374760141679,10.0884168607343,-1.44262750415485,-0.353801330376908,0.125858594365857,0.604398340121696,0.210717721071798,9.898613303354,1.84427540592996,-0.781091800918247,-0.0446581766328337,0.42304553996419,0.0192332375609501,9.66829846611366,0.727364315801077,1.26032675707131,SQUAT_DOWN
0.2,-0.260160395052193,0.742641473722596,-0.226642253854278,10.0990119246161,-1.38515818164566,-0.353724032741201,0.114170734555094,0.666942306874175,0.228900280566146,9.90589615046201,1.59134119542055,-0.715395275751943,-0.0186946694942756,0.420613280595131,0.0180574731931182,9.59772027556743,0.72203444525711,1.16144853963228,SQUAT_DOWN
0.21,-0.283454286103278,0.770139241305979,-0.242286325293896,9.86184058948891,-1.4368506424754,-0.382739395564916,0.140936887072682,0.720646889857007,0.251373076040256,9.77296380131112,1.51735270671027,-0.597753515366055,0.0113021608260548,0.426493694365987,0.0114882117803761,9.54829215063173,0.70732344901144,1.03585181219884,SQUAT_DOWN
0.22,-0.243541823136267,0.774450979876317,-0.253283969342319,9.78691655027212,-1.53097833844704,-0.308794950314651,0.155375667142697,0.771655189189072,0.257120195358919,9.7038784782794,1.40352537535281,-0.46247457416462,0.013193275153477,0.44806103982471,0.0146763854860367,9.50676152451437,0.667151725534931,1.08677692252687,SQUAT_DOWN
0.23,-0.207837938125229,0.793067852561573,-0.255275167313188,9.7874015761177,-1.61634873804903,-0.249345595931427,0.174584553381351,0.822008621897755,0.253386189465389,9.84162776573623,1.42480388175374,-0.508566506186745,0.0137812683880351,0.480819547599017,0.0202802549667636,9.39368684887407,0.63099756575732,1.19725216362774,SQUAT_DOWN
0.24,-0.176794444189565,0.809040139209789,-0.259592181842747,9.69042555789537,-1.60121495790199,-0.181140014668755,0.208170103961255,0.880245031710776,0.243120787801137,9.91251506098261,1.64255998512588,-0.49258900887041,0.0140430182479653,0.503739006821285,0.017320423137843,9.47961480805918,0.614815197977445,1.16060275071126,SQUAT_DOWN
0.25,-0.140055966947683,0.790783710340139,-0.261008826275601,9.58403803008103,-1.44653803737292,-0.112377109558755,0.259237041222697,0.921788782569795,0.228936862114756,9.83248276917036,1.70562013946445,-0.396758770060629,0.0091637768446178,0.52159169263853,0.0196098844042617,9.45653204482008,0.657897783571065,1.13130878349528,SQUAT_DOWN
0.26,-0.115270477639233,0.819833215874038,-0.268780500828023,9.59323731896108,-1.24692350997206,0.0280203187736537,0.336427384281464,0.909809399287574,0.200999165888964,9.71064116052779,1.83335908522371,-0.249547453633269,-0.0222626900371807,0.541090788716404,0.0105533519967277,9.43213478357424,0.669498992522188,1.2312986634035,SQUAT_DOWN
0.27,-0.127446374477926,0.831407456522795,-0.261979927200304,9.56967272631207,-1.2160446615242,0.193050548655669,0.388559849725841,0.916957626948137,0.184224276140647,9.67783699495993,1.87715888829472,-0.0908697831475341,-0.0643832550672786,0.562009805776423,-0.0013191540652715,9.33676175327958,0.688952064548117,1.41316719522258,SQUAT_DOWN
0.28,-0.152937721172216,0.824497555552208,-0.250325698936803,9.65965068174465,-1.1513162418479,0.268313809251731,0.401980614491529,0.953609450262365,0.161916926762445,9.76238740508892,1.80594039675398,-0.0151000389880763,-0.0871816172621051,0.57702608598293,-0.0120544760315437,9.27049321170648,0.753560562918837,1.43958021662026,SQUAT_DOWN
0.29,-0.217361426519231,0.856759658248902,-0.251309856881111,9.7634074934044,-0.882377247735407,0.421035075902627,0.417596295135274,0.989306144293578,0.16342333398557,9.59932926948399,1.66999959243234,0.119359415757903,-0.0910481835966944,0.58322244939498,-0.0198073438446889,9.22833813314731,0.746547421887934,1.37433414630616,SQUAT_DOWN
0.3,-0.264290164172112,0.916209192556487,-0.257074456304013,9.88021939024161,-0.647709659308726,0.670508186848241,0.466293855520713,1.03216746906409,0.172934752410151,9.37727369810376,1.32790897428827,0.171334554933584,-0.0982206420814483,0.576368453818018,-0.0219666978529975,9.08185639872964,0.725547920545888,1.34333815765645,SQUAT_DOWN
0.31,-0.259522765486288,0.978871714002905,-0.284060283010573,9.82861641434904,-0.637903897174374,0.685286831568179,0.520110163698832,1.08634263958908,0.19556808423467,9.2466068882701,1.03739262220854,0.190694013181393,-0.092070159702058,0.58608752130606,-0.0240558021669137,8.96109322169483,0.712199695696883,1.23414745445828,SQUAT_DOWN
0.32,-0.249820175375613,1.06701524800205,-0.325420006513758,9.65469127657354,-0.602328702665144,0.97391017032965,0.58654496773023,1.19217718912159,0.223447478210746,9.34996539167158,0.816716571981784,0.440824204596569,-0.0721311472543941,0.627223159750024,-0.0346343611638426,8.8762266290311,0.712277065044434,1.29439607829024,SQUAT_DOWN
0.33,-0.26039519300667,1.09301028848808,-0.360782605054185,9.40040549766233,-0.636197170570627,1.27521249392636,0.675406554224364,1.32353648792402,0.243380872327246,9.3777143795295,0.796056296331194,0.74750232774589,-0.0630657176966066,0.677810108814549,-0.043868159287529,8.76841220633478,0.723320511779108,1.38236872918669,SQUAT_DOWN
0.34,-0.29130374440134,1.11221650423969,-0.374522784237216,9.39343595832805,-0.557016407129965,1.34223651430531,0.742781422546121,1.43771911763108,0.233620543665439,10.0001480816112,0.792523523186382,1.18321969405249,-0.0661524902739568,0.718297283951566,-0.0459360046933486,8.70383457021703,0.708337228315378,1.57202285048843,SQUAT_DOWN
0.35,-0.274767596032946,1.18566497071378,-0.390015484218741,9.47032617850998,-0.57407662555937,1.20547816772621,0.750038320734022,1.60455253229177,0.223212158111419,10.5431835834974,1.08531473141119,1.72894714316129,-0.0747503499788775,0.742582897632957,-0.0484155356037151,8.64999776358689,0.74329843319628,1.58511400584939,SQUAT_DOWN
0.36,-0.285340439054253,1.16696310533595,-0.394399723303919,9.59947204687842,-0.863358639674065,1.14368586233505,0.676702786738433,1.70776456155428,0.194653224539602,10.7472150523898,1.43948206553375,2.40100222713054,-0.0831699562529267,0.747905414634902,-0.0574810533322433,8.45996610728449,0.750424391148056,1.6564813882445,SQUAT_DOWN
0.37,-0.341985560546478,1.17240785781898,-0.410345657157889,9.72556935794481,-1.15838224068769,0.895197367102014,0.61441588412311,1.66464091122521,0.15500734346079,10.3759266066195,2.01161787018679,2.37450338116888,-0.113497387561247,0.75154595120155,-0.0724549074279501,8.29890404157989,0.771260686508884,1.69864424978359,SQUAT_DOWN
0.38,-0.238644436516372,1.23358214512855,-0.487821984001891,9.33349706626443,-1.17554721099094,1.17931231647442,0.635000184120933,1.53011060847353,0.148178758943394,9.58807003884555,2.70504558466748,1.95881211004891,-0.134434918221595,0.745001653501912,-0.07926303570023,8.15703462196628,0.76629420321473,1.56906036011009,SQUAT_DOWN
0.39,-0.0525081527724444,1.30206267011895,-0.517238454367921,9.04747373119755,-1.02202716061342,1.62108580308877,0.642048998041982,1.5018053439265,0.164937023646559,8.94380131946408,2.77104763066402,1.56946873669378,-0.165711534478494,0.75166519697332,-0.0714299250218661,7.96802658857021,0.691412097430029,1.59345298070694,SQUAT_DOWN
0.4,0.0320264431965858,1.37814602706479,-0.52848624190181,8.83421812816436,-0.286978731211996,1.97952660454816,0.529241481982241,1.55526054734175,0.165799406964498,8.7363509573663,2.04456754404863,1.51284619288625,-0.195492492448843,0.779057398729255,-0.0478215595255956,7.86382289421837,0.541977633846247,1.42711204816677,SQUAT_DOWN
0.41,0.0978444229957788,1.42694189708506,-0.561352882741143,9.10118226285081,0.430789126416154,2.43129703061947,0.317334278076995,1.55763946527362,0.13848943466957,8.83083036867342,1.1905511663935,1.47130713044937,-0.221037255106528,0.804498975004815,-0.0194821806079774,7.77167296010126,0.332110306088199,1.21801094763535,SQUAT_DOWN
0.42,0.152774865905951,1.44276139908414,-0.572551644219831,9.32623920311422,0.573738307483006,2.3727878716131,0.133417172132091,1.55889583815861,0.177340564120955,9.10842418219039,0.696761361344367,1.16700354654602,-0.23685658571493,0.843712584805276,0.00513775710449,7.69258305036447,0.281874629790594,1.36079567638448,SQUAT_DOWN
0.43,0.147515101359722,1.39028369249663,-0.57707142708265,9.27351587857614,0.570659509228551,1.82381900511048,0.0274319430782487,1.48412547550895,0.242842747766624,8.47919983777021,0.594167236220118,0.98662176835421,-0.232919675424944,0.870336286265096,0.0229901495859991,7.62821398701014,0.194170719776576,1.45941508520219,SQUAT_DOWN
0.44,0.105793419171032,1.41753404159112,-0.568489853433105,9.4011939158,0.892197269600661,1.39765391986008,0.0521013907983306,1.3084549189242,0.269926549940908,7.77253056031579,0.639508560079232,0.677224262582238,-0.213635254004369,0.884672587785113,0.0263531315249506,7.50918083172199,0.0941437576603266,1.53338114827576,SQUAT_DOWN
0.45,0.0684313657552635,1.48825103324979,-0.54279810855364,9.11226975579057,1.1764696577915,1.75830680558139,0.0975146107798525,1.2497166317211,0.294157669433238,7.32067701523383,0.332809035928761,0.583604372084733,-0.173905393451705,0.880265072699828,0.02497144937031,7.32663792211196,0.0389851461036633,1.59881358068043,SQUAT_DOWN
0.46,0.0935525404744127,1.50177698312613,-0.501453551506759,8.6821108319684,1.75462528226382,2.31001388105328,0.0587527208040924,1.31437923500223,0.292975365019108,7.1863803631008,-0.107123428656731,0.834273145980926,-0.107084861243262,0.838944351030024,0.0152775442201221,7.11287021799279,-0.142720281364845,1.54745624004622,SQUAT_DOWN
0.47,0.0121643787414271,1.51179106579232,-0.449536541759212,8.69383199774045,2.10920810393244,2.7718789620129,0.0048643986741053,1.35554128014003,0.285760483333823,7.19762687695144,-0.138685186777081,1.45656299276677,-0.0372666026983087,0.817228006751263,0.0049909060962782,7.10875706442389,-0.272710752574008,1.64338049278762,SQUAT_DOWN
0.48,-0.0895050625252222,1.53301141855827,-0.410007890295864,8.96547162839497,2.16848968479866,2.6076524957038,-0.0628136602115258,1.40063561103805,0.317903005218318,7.45951732385208,-0.158945245850867,1.9238406058413,0.0092084627663924,0.803508627153191,-0.0093047356178074,7.01963173919363,-0.316726179925359,1.82339813400432,SQUAT_DOWN
0.49,-0.0895050625252222,1.53301141855827,-0.410007890295864,8.96547162839497,2.16848968479866,2.6076524957038,0.0376305528563994,1.51004779329922,0.390522481090768,7.92305418780383,-0.898978043896668,2.50335108524846,0.0245244427336417,0.777491808512295,-0.0241339563470518,7.03850951819425,-0.119917842489096,1.88715518789116,SQUAT_DOWN
0.5,-0.16352503448751,1.54070940786282,-0.384410299144118,9.49507744378318,1.6810856755644,2.72463054362004,0.320853483247802,1.49045762861084,0.393028394604714,8.92239947198283,-1.84161930620038,4.25948567417809,0.0138710478171049,0.757623277516636,-0.0233068031986557,7.38468452376422,0.0824307745374709,2.02297142121664,SQUAT_DOWN
0.51,-0.271839391961139,1.52193985981298,-0.383001942807095,9.7998170579599,1.0954811922779,2.33327771692814,0.520969156018812,1.4704129866786,0.333715487499696,10.5936056792281,-1.34099833512431,5.41443448438365,-0.0136393304126185,0.733194458046666,-0.0076885873062951,7.79333102824398,0.388402762531684,2.10857262326642,SQUAT_DOWN
0.52,-0.182810897932683,1.51335948628784,-0.416178276723778,9.17614081785031,0.690304520651372,2.26943860129843,0.621905869487127,1.41724078517783,0.193756432823011,12.221974537153,1.1511177271483,5.10469953953456,-0.0258388722865039,0.711472947587121,0.017728368280818,8.13268152369881,0.651143525572131,2.02398409766771,SQUAT_DOWN
0.53,-0.160952328707166,1.46910737278202,-0.426995977232252,8.98507707746436,0.66131124906516,2.44834989523779,0.544696628715739,1.47148992397205,0.0706314427372183,12.2687099390951,3.17652666327231,4.28073827526692,-0.0319432268873523,0.710506467097657,0.0441209114913497,8.33507938005303,0.802911033022927,1.96509397552108,SQUAT_DOWN
0.54,-0.108872512285797,1.50955887193063,-0.4215543763881,8.90325495619653,0.769856068421408,2.74091788322519,0.294774223617158,1.42515235062853,0.0262150046263103,10.291827787877,3.510223105159,3.38726420651392,-0.0125908511075895,0.715489505119624,0.0454221247523423,8.35085584090734,0.861560208223195,1.94781615384846,SQUAT_DOWN
0.55,-0.137905189309002,1.49912170404383,-0.393526868019938,8.79682271414631,0.0454276028397118,3.11711733994918,0.0187682747893986,1.35081874926683,0.0220770779017658,8.10165557041859,2.41596809615512,2.43539241582844,0.009099834352605,0.712038938497774,0.0379826174851813,8.20977239579765,0.97981060525511,2.08033042587291,SQUAT_DOWN
0.56,-0.197244174855135,1.55646664606412,-0.410390885371529,8.74037860523567,-1.06672326613662,2.72897831462074,-0.240245859306162,1.28121350625843,0.028149043035726,7.1254439853625,1.22625702544823,2.04995873971974,0.0320708196750856,0.689134438038692,0.0128594661618959,8.08488854089201,1.13288350950417,1.98629705448543,SQUAT_DOWN
0.57,-0.124663156652245,1.59336055145686,-0.432614851722309,8.29695665650344,-1.39118011365279,2.68867295067986,-0.409833633193853,1.37388083211028,0.0823755200933109,7.41814786925989,1.02105726507648,2.27016781136118,0.0473598369297007,0.672615859051984,0.002498965605959,8.13198609260347,1.12603920159288,1.80197548160663,SQUAT_DOWN
0.58,0.0328705076231409,1.5968992774398,-0.429390505166573,8.04513426731158,-1.39077311126575,3.22741486271559,-0.34973315374371,1.4912402620276,0.187354443171153,7.80574682192602,0.620313842598668,3.00200701501541,0.0312349148478777,0.681760907058439,0.0106477313656542,8.09742574853003,1.05654318796559,1.86032443680513,SQUAT_DOWN
0.59,0.154165995057838,1.49501107806597,-0.412212200446993,8.16870247440003,-1.34821352728459,3.81091555808114,-0.144458474770086,1.39896087629649,0.221494003629485,8.10948234376614,-0.388681619866277,3.44606427319864,0.0132452323966589,0.6729223722654,0.0270277265547345,8.07317985784042,0.843360218912102,2.20614215076469,SQUAT_DOWN
0.6,0.234405612059199,1.42494369738853,-0.401108741923105,9.07400735193709,-1.07786291286202,3.58215717007191,0.0017165584609332,1.34430799870152,0.181479553725912,8.61449746350321,-0.614892058314307,3.5131581204799,0.0099880126995073,0.658643207861965,0.0415914291326453,8.14272941183503,0.632512845627136,2.73835166004882,SQUAT_DOWN
0.61,0.239274319126055,1.38743518726169,-0.366076095583524,9.53703864454918,-0.904494205324102,3.46078806717149,-0.0036370879341409,1.317896842218,0.0944543754883712,8.77358200787158,-0.411105857832101,3.35591201647347,0.004460701148581,0.640052160316592,0.0561004444579112,8.34123428527103,0.440526402085986,2.99123487727643,SQUAT_DOWN
0.62,0.205671579663368,1.33421224724775,-0.321893731896335,9.55912936132354,-0.171020204868316,4.02689485123016,-0.0130044642215741,1.37953993232533,0.0346348852050343,9.26014735957577,-0.034333493922721,3.1151984587985,-0.0098278567443356,0.629509855378467,0.0416316512919618,8.81529793047477,0.250544678776279,3.016426224842,SQUAT_DOWN
0.63,0.134899183049752,1.24578880121159,-0.248356154293081,9.54238524305541,-0.0034732148924651,4.40151139532138,-0.0427642053414536,1.45261378295452,0.0106166380113828,9.00748370375857,0.0172405735008708,3.95008761681016,-0.0153728541045659,0.621407316115891,0.0029647120535657,9.04903467864888,0.11331444627949,3.02701575969112,SQUAT_DOWN
0.64,0.0868323917047006,1.22326913351888,-0.188174285240429,9.23072250706373,0.165839194912775,4.06094012997046,-0.0196268922863957,1.47704191033191,0.0086276461109742,8.5389053811582,0.125182365526079,4.77730706631218,0.0427878379620279,0.609395541818889,-0.0422194372490388,9.12579884576085,0.0844217817753427,3.07719183288942,SQUAT_DOWN
0.65,0.059178449441113,1.22192935715188,-0.150330521941018,8.89135820179227,0.519823683658074,4.18893848796536,-0.0649059855973165,1.43467258352897,0.0290398166206365,8.43522264296578,0.453725500663348,5.10543108361455,0.119198017765651,0.589661016307497,-0.0945687450522758,9.17371835090837,0.14390819666023,3.01407684159689,SQUAT_DOWN
0.66,0.0903031431313652,1.23241431881453,-0.138573907390532,8.54572270761908,1.1582960187554,3.9933255496961,-0.127068500101442,1.37122360383154,0.0226324467868497,8.66777784336645,0.427789696279126,4.90216826646055,0.155659730628334,0.574788215944748,-0.141435695306471,9.25159205488784,0.532906353967808,2.92291925313464,SQUAT_DOWN
0.67,0.145230650061686,1.25312893457015,-0.145268506813165,8.21401489578763,1.21081991207298,4.01135950150292,-0.195070723967505,1.32616633606782,0.0086664136924079,8.74146401515183,0.110803202859837,4.614371484201,0.184778660796849,0.56711604488599,-0.148823033018934,9.19696237668199,0.834876190913385,2.71429516312809,SQUAT_DOWN
0.68,0.0789315434057282,1.23548297851249,-0.181493008243117,8.11708149405703,1.23329054761347,4.23792924858394,-0.258957855729699,1.28766526617935,0.0114611928999449,8.60815915135604,0.289964035375887,4.23274411938801,0.166548346811505,0.589274613747114,-0.134119902886863,9.09107857661913,1.04239901958187,2.95406254094013,SQUAT_DOWN
0.69,0.0425855214636106,1.20652447110609,-0.221859421248588,8.28766522440369,1.21316450669291,4.57662569622825,-0.293238407855665,1.27037266440563,0.0055925288809466,8.80595697859375,0.493650943314239,4.18796539369144,0.16572951994165,0.607967412719312,-0.0988521489506029,8.94834997742581,1.13450133277429,3.29914716273649,SQUAT_DOWN
0.7,0.0255337773641054,1.17055865583083,-0.22509698812163,8.10332031981607,0.880788682050035,4.54348239356827,-0.353969714312302,1.33805922578644,0.0103663849541211,8.87467281274343,0.523975658567237,4.11207201046712,0.141394977893188,0.631057523491385,-0.0849513088486881,9.10543071553512,1.28237473927181,3.6518043597955,SQUAT_DOWN
0.71,-0.0631622717394884,1.12435812880373,-0.215631083927516,7.99393594571629,0.60601838529135,5.18562058996548,-0.368942249476787,1.3621890842405,0.0279349813662549,8.80279826551382,0.543064226526858,4.13747209105939,0.100036475279665,0.661226893672304,-0.0764021522612452,9.08061251745362,1.29415124200254,3.70900367993754,SQUAT_DOWN
0.72,-0.0467041217346541,1.13248354578583,-0.203749933396645,8.24352033018347,-0.0479515927748865,5.45304884430314,-0.275701656123022,1.3385876888033,0.0580177290688714,8.67816787102985,0.487978017228191,4.47715237328813,0.0922270127020126,0.604315935237936,-0.0562633972175608,9.07734745935711,1.19425293033233,3.75654246188765,SQUAT_DOWN
0.73,0.0814364015873785,1.16408643043328,-0.184390603296984,8.28866549784239,-0.551246045810956,5.2231411995904,-0.230984243940411,1.33176584669196,0.0665765019455343,8.74257425946711,0.241062735343682,5.08524870261452,0.0577141137432926,0.561586415163506,-0.0554532335232155,9.33625835709623,1.11053678719826,3.73188056987158,SQUAT_DOWN
0.74,0.211950147939419,1.15754513960055,-0.171628797932065,8.03129821290727,-0.0439606314299597,5.29073622108722,-0.236395464166397,1.35874074615218,0.0351566298107315,8.53170151907829,0.382025206069765,5.24303328487701,0.0419089780030283,0.559510448532321,-0.0555140174359587,9.22507817625497,0.916969104834235,3.1034833391531,SQUAT_DOWN
0.75,0.302397774322026,1.11657818614115,-0.161751145130239,7.96242509125496,0.722106157322836,5.49798976168366,-0.139051116186589,1.32497925066493,-0.007853867840084,7.91391837366821,0.343447524801213,5.55501959226125,0.0288247808301093,0.566415322939692,-0.0540465968465473,8.97540119191803,0.808441394637331,2.90970929139508,SQUAT_DOWN
0.76,0.307906335945157,1.13206080476679,-0.169251614259924,7.89378156470715,1.33151158651114,5.32447048479823,-0.070245954874646,1.30568208206338,-0.0316643111954074,7.61698582798503,0.345328979172761,5.86818265910283,0.0200857177697848,0.592963226625666,-0.0511895290339781,8.74949925363358,0.794081053439373,3.49382803658065,SQUAT_DOWN
0.77,0.257703117081912,1.07930543511852,-0.180503733712653,7.71246421797699,2.12309184444653,5.68505865272018,-0.0360446846682512,1.28981269751819,-0.0624607597541674,7.49610400148042,0.713624094740604,6.09290939777728,0.0641784025287961,0.618483176877697,-0.072496465094029,8.76580866274339,0.804833460461252,4.06232887712833,SQUAT_DOWN
0.78,0.162295931510528,1.04048688237038,-0.213324375522024,7.87627571256788,2.37252778984294,5.55145529503831,-0.0730917471908441,1.32528701543151,-0.0916417890605725,7.74555402401819,1.03904592452885,5.7174509436006,0.106414604981567,0.570750331615735,-0.103801338061117,8.91805160263143,0.841635139247938,4.25849373822555,SQUAT_DOWN
0.79,0.0974430842427614,1.05648392345476,-0.240008157812769,7.76143611544008,2.51520017082873,5.66001750958409,-0.16709931792354,1.38688180896459,-0.0961618876114781,7.98890283672144,0.887938918513606,5.67275702830946,0.106131026530835,0.489316386294464,-0.122552456321683,9.16470464048511,0.821647451177207,4.25357561042695,SQUAT_DOWN
0.8,0.0234744578351461,1.04270672841134,-0.249243345436525,7.51685078237349,2.60729235407767,5.69502276450853,-0.263034065715906,1.38713925259532,-0.0795409782296861,7.89118687048711,1.17315194005315,5.97220187431203,0.131420573899939,0.503708568652371,-0.142691197962829,9.26154093990087,0.736642607992064,3.80753791632445,SQUAT_DOWN
0.81,0.0039736135987267,1.05075937462763,-0.246185865509037,7.6389445310159,2.47362782601848,5.61655882998596,-0.334526652935609,1.38077233126551,-0.0395972449087992,8.00195008500897,1.18518068125864,5.97734240124117,0.119458538810552,0.502421721229651,-0.147253646878603,9.15666890845381,0.624471371625147,3.74262576251381,SQUAT_DOWN
0.82,-0.0134614636045905,1.05339995031778,-0.231309980013291,7.71148872021733,1.78311790680174,5.79473122431415,-0.365489949004916,1.40505493880841,0.005287788742074,8.01627291667262,1.15186684085169,5.86280605177938,0.109809598149557,0.492055282985627,-0.134042790761822,8.94905846391836,0.548567989940601,3.8725400514657,SQUAT_DOWN
0.83,-0.0562365609172452,1.0400525656407,-0.236408812659529,7.60028982965651,1.35654172986725,5.71948733517689,-0.367847807646617,1.38609709685768,0.0496488632667791,7.85159261477154,1.01865089101715,6.08349303910357,0.0887902102972813,0.502161150534329,-0.118592874617126,8.9366193920405,0.484369692953379,3.90224899126806,SQUAT_DOWN
0.84,-0.045801444016145,1.0480058349994,-0.264938093156158,7.59831385393445,1.06142161436355,5.83547979056834,-0.331084940704379,1.33347884279993,0.0672470739683559,7.5112831983495,0.624132045407487,6.2277379324576,0.0366999032097902,0.461886575158076,-0.112328861305576,8.8435276644845,0.700559408282406,4.02770496616653,SQUAT_DOWN
0.85,-0.0187461814871847,1.02105414142964,-0.290253512959394,7.56564965612378,0.840890382836189,5.90971316438599,-0.247477545800669,1.26065931833842,0.065609060198438,7.11116382891268,-0.0669581191441029,6.34518774656722,-0.0569148188224494,0.445120443724935,-0.0977991190468721,8.84747937872736,1.06599835533715,4.31537419191994,SQUAT_DOWN
0.86,0.025932915390321,0.972052298973564,-0.29560634809998,7.43756847793702,1.23575098343523,5.79766137239696,-0.123885675417609,1.21128991588592,0.0659592635023484,6.79450981825139,-0.64617457304906,6.43613511387592,-0.101848910819851,0.475903490582145,-0.0807006711907808,8.84200972331803,1.27476483715885,4.56913701471042,SQUAT_DOWN
0.87,0.0863494098662898,1.00953598935123,-0.289635783784273,7.66730167368024,1.5050186843884,5.83093546865313,0.0061125789375055,1.23811459361583,0.0443122494669304,6.59502932499236,-0.137845023932148,6.61132084283029,-0.0580763245009997,0.484337342054533,-0.0629794332186615,8.95025345009266,1.4433290185519,4.68559345223337,SQUAT_DOWN
0.88,0.0609648474091727,1.02460638513676,-0.272518023029431,7.7378450025445,1.56470181819558,6.07962592494574,0.0925254565033063,1.21201300018139,0.0023779319227144,6.2263270152651,0.0811695964025281,7.41610634072389,0.0672153295309227,0.505850069530517,-0.0450220050391809,8.96285019788553,1.57070665377099,5.03630567960972,SQUAT_DOWN
0.89,0.0321163712496483,0.951245630930009,-0.252849065379851,7.57600348818972,1.73506462613113,6.2312046948186,0.0683900524371353,1.24878392819781,-0.0442351572906951,6.3100715641368,0.765709637476054,7.2023756589156,0.175670944805206,0.542456365342805,-0.0252531792668825,9.01950322332783,1.37420707713686,4.97718095136211,SQUAT_DOWN
0.9,0.0088812376030126,0.962112953841599,-0.246462395390123,7.7099121001664,1.36779989768643,6.289367868846,0.0004104907718062,1.28117368566834,-0.102134475812165,6.33605957237385,1.65726021400732,7.11032163348788,0.213970704527627,0.542310802039749,-0.0108452328719888,9.09824479212115,0.808994180857914,4.55731894033927,SQUAT_DOWN
0.91,-0.001447502070791,0.98139624186168,-0.233899838834247,7.54243920381255,0.656058825191406,6.65915392805261,-0.0750717534846483,1.26152865295509,-0.13724756987608,6.2499676876613,2.05707084102546,7.14717018510304,0.164996518949356,0.456267602900206,0.0012728028804109,8.93000196694086,0.159260391602655,3.88090876824888,SQUAT_DOWN
0.92,0.0311921322902378,0.977306126650723,-0.213325264129863,7.28119011015663,0.385126726771368,6.79180184101746,-0.144040916629896,1.20906985070707,-0.139410065610763,6.3799391026677,2.11769034598934,7.25688329605281,0.152189971842758,0.470393422647428,-0.0121888029166898,8.93705417559827,-0.331073278382051,3.67966251871904,SQUAT_DOWN
0.93,0.0540433220818819,1.00799250800152,-0.19840730301028,7.15361508617768,0.493199229253103,6.99390698630928,-0.225502316707649,1.19580662466241,-0.103187180490406,6.54133225318359,2.07240352162206,7.27667822199704,0.137142877397526,0.487914827126819,-0.0277596724940609,8.79448178825188,-0.412855981844996,3.76898732695536,SQUAT_DOWN
0.94,0.0442470883696466,0.988978884048842,-0.192349629817183,7.07215823643095,0.736166909628647,7.01335051099912,-0.251615372628164,1.13855341230317,-0.0613116531105008,6.79730376354219,1.51083139845822,7.38201619978925,0.0970243717529898,0.477591334416387,-0.0483748109641318,8.68327551245012,-0.589575002327214,4.68751031990857,SQUAT_DOWN
0.95,0.0642072818193266,0.983704352532864,-0.185606183303013,7.20037067187874,1.09387130788314,6.81064260953791,-0.285235465897328,1.15739201082499,-0.0202604169326446,6.87238363017833,0.921935390407029,7.20850790006705,-0.0034835685150342,0.446456679886069,-0.0634971851237179,8.86267464281317,-0.352075887692529,5.29162241713044,SQUAT_DOWN
0.96,0.0274214938672241,1.00518235327978,-0.155321688602274,7.20570444256627,1.29592759137558,6.95466199064735,-0.215528638061979,1.13714210289155,-0.0129921219742528,6.56158704833034,0.480749967054858,7.52752360061934,0.0024471181514516,0.387378984687382,-0.0743130928504416,9.1147353149235,0.0270114228800177,5.11901741225859,SQUAT_DOWN
0.97,-0.0332478513809763,0.992804761906543,-0.0986075621267978,7.04297332547679,1.1924501913929,6.85395968485416,-0.154867944592708,1.04716343811239,-0.0045551382747359,5.91257967519354,-0.680275479717248,7.92383201532774,0.0063723758253676,0.36996742049668,-0.0666058926552882,9.05395845665706,0.737654604841161,5.36440284277739,SQUAT_DOWN
0.98,-0.0251552114347313,0.986317376246558,-0.0536325766988218,6.56670847886647,1.35863495979454,7.02820820476518,-0.0232485984269314,0.939113920737365,-0.0348352907344132,5.68504203240876,-1.28945342830201,8.03805660323947,-0.0116512601582936,0.364173689883468,-0.0414078097986774,9.03721745793425,1.35347941323376,5.4273443743164,SQUAT_DOWN
0.99,0.0202833376872982,0.995237305661698,-0.0393168477280818,6.56241330180225,1.70540371116397,6.86496515170636,0.0504930223782858,0.975753189065424,-0.0739444085288046,5.88812655277901,-1.2536422920238,7.7775885615881,0.0308793406095633,0.360736339000185,-0.0112839346137491,9.04654199960047,1.74417326505129,4.66198113955973,SQUAT_DOWN
1.0,0.0043583670540866,1.00566647265317,-0.071498880748274,6.55724732587585,1.40090286616363,6.97767914067498,0.131591708672793,0.977503395924891,-0.104959241294394,5.71082297608478,-1.18182319065046,7.89834160438937,0.019730663673925,0.281352651113969,0.0035318018455469,8.8075002572095,1.91458685365986,4.69041462500232,SQUAT_DOWN
1.01,-0.0031244623345064,0.975857032150824,-0.130506189714668,6.44817101418465,1.05535745084232,7.44528376258177,0.137832868737312,1.00298599440608,-0.0962896637744222,5.60874897326505,-1.22941492146026,8.26789199836559,0.0086368909793381,0.283394699185904,0.0139685565811606,8.90984653128215,1.80818487943815,5.08740143270431,SQUAT_DOWN
1.02,0.0052129200709379,0.953091870025496,-0.165225815851373,6.58372861061686,1.36480847983187,7.83252614263615,0.12713879105535,1.02362724905245,-0.0772155510217007,5.64975234202682,-0.725626338614901,7.66191734921222,0.0457328456897925,0.255015367414146,0.0283787615594259,9.31749292563044,1.4280569453685,5.21405216460674,SQUAT_DOWN
1.03,0.0003471489875309,0.91902652919221,-0.182153682838159,6.34228976399441,1.67739756316393,8.1567837953513,0.189348084660262,1.01017892151245,-0.0546369545628298,5.51759613645836,0.116775942284685,8.04298639880244,0.0783648909883378,0.21300520670366,0.0392951750125305,9.40243606943573,0.787911810776678,5.27440969996491,SQUAT_DOWN
1.04,-0.0347689141510762,0.871031514426595,-0.180707874062222,6.1048653800934,1.98355663704937,8.05654959781914,0.20761520809104,0.984203000257799,-0.0033256432747472,5.44649179497874,0.390921202984625,8.19012874650658,0.0629194892911644,0.186571119447689,0.0262411204333019,9.29596696059215,0.36006608830756,5.41575380214589,SQUAT_DOWN
1.05,-0.0768707849774041,0.864102968540406,-0.152092118848426,5.88771377545126,1.81804041714748,8.1467753573014,0.182759046752122,1.01700806354681,0.0635189497810742,5.45579092435679,0.735449849514424,8.23381982458369,0.0677263062567776,0.162717257358911,-0.008111560084625,9.26556058949894,0.0892975978194302,5.48519600861447,SQUAT_DOWN
1.06,-0.10618093466523,0.854945549137883,-0.104590894187555,5.58289609889161,1.71294629874011,7.9736804040917,0.10724994042519,1.02671554952841,0.0800788383685518,5.13881283476049,0.76556657479639,8.69952632751996,0.0883101850446998,0.136768299654333,-0.0361549325934222,9.04059475411586,0.0847900783127951,5.54784212514494,SQUAT
1.07,-0.0974098330285866,0.866058351022723,-0.0649871483349216,5.25777812917336,1.8470413401094,7.74022016707372,0.0303732792632478,1.0009292243469,0.0569731549844806,4.88791078050539,0.844646616379829,9.04826652999764,0.110953579400694,0.126558386808867,-0.0548945445635165,8.92306054984102,0.355816108257521,5.48239748283196,SQUAT
1.08,-0.0857486226171591,0.820956582176727,-0.0361701521575249,5.29466097522927,1.72150802301514,7.56692029784893,-0.0565023791884029,0.999955196034211,0.0389229598666234,4.49078141502662,0.615155980796596,8.97128685268769,0.148900947124042,0.11502427968332,-0.0485325897357272,8.86797401861105,0.811162018298209,5.20388940923703,SQUAT
1.09,-0.0712126265067683,0.810970367367404,-0.0183119833649753,5.48570899515882,1.40165134885726,7.87235558066008,-0.039993025827245,0.84546871660424,0.0278184926749825,4.29286542628901,0.223311064155009,9.24133247062236,0.191607859580245,0.117336133096469,-0.0322529918071859,8.88921914049214,1.27083739143473,5.00541274858045,SQUAT
1.1,-0.0574408637896225,0.805175441855297,-0.0258003576765854,5.67692685375302,0.797052479490814,7.99527066900257,0.0094845694705755,0.713065052703202,0.0120869984651451,4.35919386819772,-0.116666034098766,8.60569911676367,0.208637701510199,0.121981116765432,-0.0116986210279943,8.99277565607366,1.63084481945744,4.93052263241121,SQUAT
1.11,-0.0258568629424513,0.774322341005643,-0.0516180957961733,5.78432350073439,0.534024306497894,8.27163163717277,0.0743153381503705,0.684920433186742,0.0105872518785989,4.49613523166613,-0.128975824928366,8.53431876447388,0.17499676309911,0.123522625422751,0.0240171229029612,9.06710423974344,1.9498247366568,5.0866946950749,SQUAT
1.12,-0.0001453261302278,0.711036860417492,-0.0758051304702894,5.96545958421962,0.662583467516913,8.40977195483009,0.0785730685337577,0.698728267180314,0.0019743555736665,5.08543775959449,-0.0109916844607819,8.52612964785271,0.0993703498295866,0.127654847971393,0.0511773084300156,9.19864164422404,1.89230569003538,5.37070373700834,SQUAT
1.13,0.0480616826038191,0.71284686591455,-0.0823446023583441,6.20672370532047,0.876996178176572,8.36800118573844,0.0834754918681389,0.76001808126216,0.0062561913316584,5.65315840394224,0.331171314773701,8.38319549035572,0.0274291148888972,0.113647299162163,0.0702923319792231,9.40217316127935,1.55449988005249,5.74990441129494,SQUAT
1.14,0.0711339363183132,0.684856364176518,-0.0841756801487423,6.01697619581292,1.14568254720838,8.54946675872382,0.118946678866444,0.771711975780398,0.005763574198764,5.29493082499644,0.924699610683894,8.59895679217691,-0.0101124540656338,0.0907001567939647,0.0683439469844107,9.41396529576143,1.18976082920408,5.92250457065819,SQUAT
1.15,0.114120288143701,0.653863434557402,-0.061584819582315,5.83677915008207,1.37144880857001,8.15339910371301,0.126227148935645,0.71581751315699,0.0055606900337754,4.86148906144906,1.05183252021498,8.81662680894552,-0.0304770993607287,0.0629677257460383,0.0480083443347079,9.56941592872536,0.933031208745829,6.02919926823901,SQUAT
1.16,0.10519805103058,0.654951322183546,-0.0292489175666929,5.6877756398861,1.72706376087104,8.37152379355301,0.103591273326089,0.635306213637965,0.007498544588249,4.981290996079,0.945379476570813,8.78201971806642,-0.0590303483669729,0.0268097573079174,0.0231800458948964,9.60632965268828,0.781802318374288,5.72502088942952,SQUAT
1.17,0.044808608515713,0.603119707104568,-0.004702473134821,5.21996087830049,2.03111815271057,8.42485433395707,0.058726976110038,0.62072733212995,-0.0022232318796146,4.97072861908154,0.671614695638256,8.92528220995194,-0.0609593764407425,0.0275515717729904,-0.0055662291285153,9.45141133575433,0.90125595659712,5.78168942282648,SQUAT
1.18,-0.0207310447481918,0.572373314907386,-0.005612332926525,5.11267863176461,1.86965563889729,8.45375519060133,0.058722438858064,0.573536664136005,-0.0040698995384349,4.70880301518612,0.472265185623755,9.20660984311622,-0.0478092457909358,0.0342661392223214,-0.0267612765022381,9.36667132961219,1.15705280609867,5.95481948331117,SQUAT
1.19,-0.0601031720212968,0.57099520068843,-0.0144943578322884,5.27882605506906,1.52677137723521,8.51558344448302,0.0545154262977224,0.546092568889195,0.0032700129957367,4.73009214999716,0.226234840474782,9.07216868560848,-0.0335642727954872,0.0240301159854116,-0.034491205024989,9.28069618729293,1.43562755241571,5.83254938368576,SQUAT
1.2,-0.0673772752228458,0.551797631005359,-0.0185967113404061,5.02467380382772,1.23866806320907,8.62674594113988,0.0490055369929196,0.577887205362453,0.0129149284787791,4.91437761433039,0.0978013966309015,9.16976798025599,-0.0186537997964825,0.0268158883855711,-0.028417946564185,9.23293324920576,1.65266522326996,5.70734830328478,SQUAT
1.21,-0.0487789268189303,0.567679674263297,-0.0185897486674256,5.21848058449882,1.11114409581273,8.73209726093519,0.012701232243559,0.600241401993159,0.005524655843129,4.70028793661796,0.23293633752797,9.01504182408585,0.0139569793779719,0.0226321940115917,-0.0137584786047434,9.14730265545,1.67689001790162,5.5398983634282,SQUAT
1.22,-0.0410938846988012,0.547711855778016,-0.0039106250833227,5.13294421575982,1.02074097589214,8.82153012327157,0.017017291610796,0.563711151303003,-0.0104165804287573,4.30964362145896,0.36881896882671,8.84856850875616,0.056153606672084,0.0341857270022221,-0.0040360489693599,9.09127739938328,1.56616297621532,5.40284157181715,SQUAT
1.23,-0.0469006435737437,0.481505696004355,0.0029015822554904,4.9388973596646,0.897720968280502,8.82216544518089,0.0509802110978915,0.495372294564631,-0.0045367153002905,4.11532895103493,0.403642840934134,9.18654241581514,0.0593799673429288,0.0479533768539101,-0.0023270832064932,9.05357113721864,1.42915614599586,5.51704988931168,SQUAT
1.24,-0.0324124578591967,0.406099861359401,-0.0081504669389787,5.01261575699946,0.928215320730211,8.82431687264084,0.0464859903120476,0.435196200804797,-0.0020614945862319,4.39795916508032,0.459124740074074,9.11743647295057,0.0511299792805604,0.0619068208783926,0.0017543381365734,9.09661158249103,1.29623306255001,5.82460301640623,SQUAT
1.25,-0.0168960253213524,0.389340113156161,-0.0358634221778369,5.16718511844759,1.00917351103715,8.74315758762202,0.0503325277542992,0.379346017981206,-0.0155377771767369,4.67985986386737,0.571131057421853,9.31088572798255,0.068577148252597,0.0528102134940171,-0.0053431495702341,9.10494865467684,1.09396555579568,5.9158101588028,SQUAT
1.26,-0.0249845383726562,0.366439781542093,-0.0376040926889798,5.02218798158919,1.02159648598294,8.81084234182779,0.0344131687159075,0.387385250369025,-0.0173056967251224,4.80683143271904,0.669078919963884,9.15424325783969,0.072039223691275,0.0473834625094482,-0.0107147915964624,9.05820795317144,1.10817878033038,5.71438803209758,SQUAT
1.27,0.0073986018376534,0.318327608797938,-0.0221804021206212,5.06511086907433,1.15915840410673,8.50185651144189,0.0624688229798297,0.368761595271409,-0.0139950777228488,4.74963111443225,1.0708910127956,9.25384666739142,0.0447352083896402,0.0590444932913097,-0.0151899684037719,9.05352098127894,1.2422648239304,5.80599954595439,SQUAT
1.28,0.041277984162051,0.35681214035841,-0.0008816587066509,5.16174572155976,1.20358201440207,8.59042847356087,0.0244501494070564,0.383298123125009,-0.0124702529288945,4.70605411567256,0.875733307314795,9.1004592367947,0.034285566771326,0.0559468206143476,-0.0124860065918035,9.06661361897032,1.26944558182931,5.97375805660198,SQUAT
1.29,0.0148751085113806,0.367806283150192,0.0072792766522531,5.02813853977199,1.13333704902679,8.68807199499459,0.0297133459910843,0.342392491941493,-0.0161566760943686,4.17672087198164,0.705719145262268,9.17549030978124,0.0301610708862078,0.0360138372695025,-0.0141172758244037,9.13327427090313,1.40331692536947,5.90760137924661,SQUAT
1.3,-0.0237294944461259,0.341006895475772,0.0032769740133272,4.84338036038906,0.956534133260048,8.9324970257391,0.0335967841723895,0.293609832919038,-0.0179600411503605,4.16472016477302,0.607115881081414,9.0909468132133,0.0252830437878328,0.0400127238485889,-0.0105545142711897,9.11608980010287,1.61167668542288,5.76891763283854,SQUAT
1.31,-0.0268968610525418,0.253330090869787,0.0018517230786879,5.14922269816383,1.08771236667973,8.90685811837776,0.0329148461361902,0.288181391411749,-0.0225836865547872,4.44669869023965,0.58964005276779,9.00366035243909,0.0037319306003269,0.041816187564268,-0.004042954237833,9.18273210994985,1.82030571647146,5.69141258222721,SQUAT
1.32,-0.0083417246334552,0.277703266570245,0.0070917918778483,5.27993333071199,1.21584374150356,8.66613121406266,0.0327431759693351,0.264414412333064,-0.0306720291048264,4.26310806618377,0.451564815921996,9.20934340229404,-0.0089738420820021,0.0563774251854939,-0.0009421737817891,9.12950534925234,1.88947788145843,5.85178181146328,SQUAT
1.33,-0.0093322338488164,0.256234934584656,0.0105028836101282,5.01161873282553,1.44650863659592,8.91429123320447,0.065564200407876,0.236074029128481,-0.021033537693751,4.23322802950779,0.363476897161991,9.17615761530283,-0.026634755495608,0.0431879652312007,-0.0009152974355353,9.08195105466195,1.67523335125005,6.001792885504,SQUAT
1.34,-0.0148181558792689,0.234677041471646,-0.0001394064208391,4.81082727755213,1.62492017098585,8.93251108069078,0.0679747106099382,0.212472291189666,-0.0199216716467126,4.54820807191653,0.510755617537049,9.35271242522851,-0.0239342894414187,0.028918783547404,0.0065078651692878,9.10495256399905,1.41141631996491,6.02643854715674,SQUAT
1.35,-0.012699221264466,0.192320989610587,-0.0224630125042422,4.859072813806,1.64505353551987,8.72241054995479,0.0325364791085091,0.215408358676107,-0.0037142899600253,4.40701264002756,0.453044659479342,9.15974531762318,0.0035453045129194,0.0263109516091585,0.0012725698386495,9.09165065066257,1.15764819678401,5.95364355768984,SQUAT
1.36,-0.0014369355215346,0.170517720605598,-0.0298137227434307,4.73480959598834,1.61362302216017,8.64094879433602,0.0416765951470701,0.223603157868423,0.0082718994478399,4.3252080974646,0.352189093366245,9.27953187418107,0.0022079956894913,0.0232251099426002,-0.0020322654492342,9.00575980201551,0.950202128732853,5.76408556324612,SQUAT
1.37,-0.0028928800083223,0.156967713826028,-0.0339680774291758,4.55952771355381,1.67113601789751,8.74766538325802,0.0667755230940799,0.208899783622473,0.0172055977496413,4.20985592499891,0.845842093040489,9.27524490511056,-0.0016904131723302,0.0314347277465347,-0.0078875737342746,8.89395999804157,0.908926176877537,5.8601858705112,SQUAT
1.38,-0.0162356332682278,0.150951765142544,-0.0385179098238869,4.66796743516294,1.62117245927009,8.77192974010814,0.0609871230749415,0.158341401093925,0.0130090055038616,3.9609057807215,0.944619967740119,9.4020326689804,0.002176593275032,0.0238937196400576,-0.0052133230394254,8.78498195580599,1.09049944762736,5.63412021053338,SQUAT
1.39,-0.0185767930827329,0.148314193286333,-0.0333274956755681,4.56693622213728,1.43212867706923,8.87732228215311,0.0391644168182746,0.123605781974112,0.0141733528744716,4.00295796475393,0.745668969197888,9.34407891276513,-0.0207820915202376,0.0174203218500667,0.0060271570379029,8.68757895470456,1.42412030622667,5.60343823668967,SQUAT
1.4,-0.0146105411319952,0.099806702523967,-0.0259749748752845,4.51243202666848,1.26609884515145,8.73732797851352,0.0176235484337943,0.100100738089975,0.019599962457999,4.30722123378874,0.57252887925179,9.39407711271932,-0.0144206182521311,0.0200072374607221,0.015123038670531,8.75586818934513,1.45336863883489,5.65617896807925,SQUAT
1.41,-0.0102864429358202,0.0901459495163442,-0.0282389311673981,4.71425843273968,1.15947524813458,8.66243266867888,0.0110403936982692,0.096375951086713,-0.0003910788859105,4.24145149627426,0.613974588766689,9.08473835376497,-0.0086739979815043,0.0098483863726188,0.0182901516271432,8.58351525598523,1.42837582447566,5.776336663301,SQUAT
1.42,0.0025734070441544,0.073502335563117,-0.0212058098540558,4.73133167536542,1.11175830856633,8.66127181089321,0.0276863919490098,0.0703674022534309,-0.0194794119686695,3.79793758240007,0.689795863137768,9.04479921531107,-0.0143555576495531,0.0118903764267316,0.0091539345985833,8.64904649636586,1.35454737441,5.70835388515121,SQUAT
1.43,-0.0106809314407502,0.0464151371405478,-0.0268016397611086,4.77674311265386,1.02812241244371,8.77788450279615,0.0387125993551248,0.0439832919858773,-0.0143116086310049,3.80834328804906,0.840608105414203,9.09707054816632,-0.0146543110423835,0.0119930918531162,0.0106634043741793,8.70156303663011,1.25737560140696,5.53188141309096,SQUAT
1.44,-0.0157584180599388,0.0494115184074103,-0.0292640855335467,4.98566955398763,1.14609678441031,8.91906531582434,0.0413783160576814,0.0390966020524348,-0.015101356515738,4.18408569672731,0.908205560666884,9.11462334786817,-0.0223947612619284,0.0273926909146016,0.0131806633871811,8.5855145979482,1.16363283846415,5.60570791405243,SQUAT
1.45,-0.0206722001602293,0.0364248548805086,-0.0272023442295392,4.90879396831868,0.854021013462904,8.89448023770737,0.0310704726884271,0.050696804588364,-0.0130487179551001,4.14365457935131,0.833569668122178,9.16769965973624,-0.0223947612619284,0.0273926909146016,0.0131806633871811,8.5855145979482,1.16363283846415,5.60570791405243,SQUAT
1.46,0.0004313997368996,0.0367400924778079,-0.0176438034757289,4.71728748149869,0.707462196453544,8.80330242260748,0.0283350139693329,0.0286503883039073,-0.0111631588671524,4.21060031254517,0.957893743377917,9.17195762528041,-0.0337016443497216,0.0369297963641307,0.0136102364775903,8.52092560047258,1.05349642270823,5.67783294265331,SQUAT
1.47,0.0157558755411795,0.0249151095924651,-0.0050937690035711,4.8521498970935,0.913273024164698,8.8059823397514,-0.0026811765813655,0.0300432655693405,-0.0056460893844853,4.29469272793645,1.01836750940303,9.11575253888379,-0.0297952952519059,0.0284099806918235,0.011603791048475,8.51239094264418,1.10045596551914,5.48448898751157,SQUAT
1.48,0.024244184426594,0.0231843634342664,0.0044640592026986,4.87245063320387,1.19178568720158,8.73507155105166,-0.0393741854335829,0.035186068710143,-0.0104174888438502,4.03243734554057,0.777184928942688,8.99786406972509,-0.0223823018932939,0.006944011097229,0.0139756407845912,8.47730352882385,1.08084668840568,5.36782566596044,SQUAT
1.49,0.0160267589616546,0.0080218495717009,0.0179095733899727,4.69125858412472,1.20669108116404,8.67407016269706,-0.0301108732263914,0.0142127041533724,-0.0099439803264161,3.98080714931655,0.651044365100261,8.98448521219849,-0.0383628313951105,0.0090789435300921,0.0089897926939987,8.44886943891944,0.984736550421226,5.37029696910658,SQUAT
1.5,0.0102095900034649,0.0011284188218731,0.0211496284154283,4.87652936271166,1.27506364799342,8.5635350505304,-0.0089240996002812,0.018847079030208,-0.0132270144222583,4.01096407719044,0.734841807316294,8.97535248770314,-0.042902487892569,0.0188432885813937,-0.0002052380475085,8.50862793175687,1.04276530903299,5.52179630892256,SQUAT
1.51,0.018864275097514,-0.0240695336838535,0.0269434559588097,5.0257215364278,1.24199098008386,8.65561533294515,0.0090780307953143,0.008174333109053,-0.0054118590915929,3.91373142212122,0.57662044911893,9.29172463865146,-0.0348752616007828,0.0237953182966105,-0.0050209153448151,8.48501668603075,1.09714144901649,5.42684995452186,SQUAT
1.52,0.0161980288281515,-0.0006051029484651,0.0333707469769179,4.73970399305865,1.32301952061002,8.48678178826259,0.0169557006644955,-0.0141936239939223,-0.0013502507332641,4.06302789717444,0.350648229666103,9.20003903632899,-0.0526337326985132,0.0262413676359974,-0.0088142756430554,8.36725331784186,1.23288442511357,5.46853268156886,SQUAT
1.53,0.0026394292571163,0.0039808845746889,0.0239837173396367,4.62726002268325,1.35421304375046,8.58131351435487,0.0464463680128292,-0.0135245288315626,-0.0161968803251021,4.18099435166251,0.331153086243746,8.95734118296734,-0.04957969066917,0.0436038030084486,0.0037788021978373,8.32241821648126,1.2429319160552,5.45246920920487,SQUAT
1.54,-0.0150232270777504,-0.0201522321875967,-0.0034957441981336,4.78472093347683,1.30803949010556,8.71344228845827,0.0649846278648368,0.0018862019491933,-0.0304116514894568,3.72982258439101,0.538660916506923,9.06240181152124,-0.0260946683148509,0.0514443813038133,0.009968955260725,8.28949537023791,1.17326046303749,5.48016491599712,SQUAT
1.55,0.0077067045112828,-0.0260547573303465,-0.0118786215792217,4.80971130747061,1.2201926312024,8.60556107048086,0.0715183673652526,-0.0347033984910481,-0.0262771127060985,3.60940275725147,0.832574524899434,9.08875719763446,-0.0105973377220592,0.0465134206913985,0.0228478168799978,8.23480117320453,1.18664191877522,5.48713852295772,SQUAT
1.56,0.025476729841414,-0.0348513254879145,-0.0097814818131511,4.44595213608146,1.29414983293566,8.61624276850649,0.0420689203389386,-0.0546553899616659,-0.0166836842648763,3.87940157765349,0.898209301068225,8.94811704110605,-0.0069243169351877,0.0356930889183213,0.0429286258455242,8.17323251871272,1.14951941450646,5.4170269304293,SQUAT
1.57,0.0264509369177762,-0.0489419452451398,-0.0086926348250955,4.44847420065857,1.49584704377085,8.58388511866983,0.0334912751991808,-0.0683865171793942,-0.0110865844471096,3.91040394933927,0.925661344481183,8.98745868558927,-0.014877893693937,0.0355725562857604,0.0507251244200192,8.18849625414237,1.08891794744556,5.40813964894063,SQUAT
1.58,0.0171274254320915,-0.0364917493294542,-0.0036218109717837,4.67871778667424,1.40092980331622,8.48711969861105,0.0325820652937545,-0.062468574285124,-0.0038292322379148,4.07345323142245,0.654113676854673,8.81576545796259,-0.0010041961191137,0.0348786225952921,0.0442057655447797,8.15340963417936,0.991448197251341,5.3032002001577,SQUAT
1.59,0.0070120195596404,-0.0260544050908106,0.0075348308133072,4.53821357644023,1.26157903262754,8.6707549898244,0.0293715657235345,-0.046765921656082,-0.0108669021929021,4.0105576875096,0.52614762950732,8.97066888318834,-0.0100051376131845,0.018642622610981,0.038191118010433,8.11394962782398,1.02405576459198,5.23092658451545,SQUAT
1.6,0.0038686807493443,-0.0364295719146952,0.0264746451241081,4.33799127931301,1.09798153698729,8.66536746081762,0.0616608597406376,-0.0614137012287153,-0.0113127614132055,3.87660810555523,0.601731875653171,8.95645403063539,-0.0348653392886882,0.0091013499840611,0.0222935956198321,8.12769935221163,1.06715295219892,5.23173149857777,SQUAT
1.61,0.0089316732087064,-0.0341567109291972,0.0291857713539809,4.47941866368942,1.08295048976874,8.6437365191581,0.0415082079013946,-0.0502556331387425,-0.0087751641665574,3.95571408653745,0.71981988360677,9.0153457070983,-0.0352512567321688,0.0118995701698037,0.0110773209659565,8.12334396069796,1.06666707061025,5.36434398871109,SQUAT
1.62,0.0376580026177726,-0.0416427796433413,0.0303549422350345,4.61390904548811,1.0476466775218,8.67702698875982,0.0086216336195577,-0.0049523720286775,0.002572914655184,4.00445604987899,0.709410116822229,9.04972617778047,-0.0342799576811935,0.0034914845542266,0.0005565103641252,8.10441132066302,0.994032899833819,5.42063659842717,SQUAT
1.63,0.0379453019915963,-0.0730370340797643,0.0288804125733103,4.48031797725824,1.26304931610957,8.66376709393857,-0.0048301947249769,-0.0022114273652554,-1.49637172448e-05,3.73251608500387,0.733039620544671,9.16064318201912,-0.0421821224984616,-0.011203928400454,-0.0021419628198401,8.06207466923516,1.10748250411471,5.46702191404567,SQUAT
1.64,0.0471599922732493,-0.0696024769052796,0.0219021997248773,4.66794764826473,1.34436612281417,8.77850112315419,0.0151365651531885,-0.0432886207600687,-0.0161062139432243,3.63751492761415,0.733435942100504,9.03477706091289,-0.0481714458552608,-0.0087349217156824,-0.0019105550589947,8.12936475243956,1.16221315649099,5.54021559739755,SQUAT
1.65,0.0183120859206987,-0.0513758931386349,0.0159628635560766,4.60908425965087,1.18855784419277,8.80264907797334,0.0378171926217797,-0.0821954975256856,-0.035319278490427,3.92713126052159,0.479098499090475,8.98886822912729,-0.0418772582293438,-0.018829148347102,0.0060796223688783,8.27248689295372,1.0652603387914,5.53208278918679,SQUAT
1.66,0.0128306417990347,-0.0947227982303672,0.0148872194217716,4.34734610908359,1.35913420380485,8.82016545774815,0.072738960397353,-0.116327918770194,-0.0454198347586288,3.85182923413017,0.741611297195008,8.93443405354727,-0.0542967099272564,-0.0452551675292647,0.0091535740992115,8.39148015391256,0.900019024401698,5.65437133740956,SQUAT
1.67,0.0048730973401473,-0.132915349831272,0.0193722548417173,4.48478031044533,1.53561752378517,8.67349944244369,0.070649688310304,-0.163102235633364,-0.0486188901297309,3.88855474295781,0.949449077251414,9.08508469943942,-0.0320907160045981,-0.0551001944697714,0.001547976246374,8.60253001670164,0.807623997700561,5.56299962257281,SQUAT
1.68,0.0017496288309576,-0.140047421318889,0.0278952412733742,4.9097057633991,1.86235857519262,8.56593471763801,0.0524326578569924,-0.135028307065742,-0.0389356787166854,4.52946787391406,0.653103457364776,9.00508781765839,-0.0131081990881544,-0.0582543593543755,-0.0085526252166456,8.76145680189629,0.809543501621193,5.46293432769802,SQUAT
1.69,-0.0618828920005159,-0.155074701921742,0.0420377447330971,4.79589582248997,1.85407904381317,8.69267689011014,0.0483916261713596,-0.0777267671946943,-0.0193539492668695,4.49138314794177,0.390989501574802,9.06786587829333,-0.0321469347354604,-0.0594032557059388,-0.0313928006820252,8.85021899302995,0.784418066825787,5.49711391968302,SQUAT
1.7,-0.0698431438483061,-0.17743060570767,0.0472671028510865,4.91591344281837,1.30179773714243,8.64856553288738,0.104342909984754,-0.117146773809041,-0.0102780363349198,4.14624945547939,0.567477981373726,9.20129702436884,-0.087621037862924,-0.0550087887159732,-0.0494047372374929,8.91898772952618,0.919940673885153,5.74152059930847,SQUAT
1.71,-0.063007894565018,-0.178980430165164,0.040049145659701,4.93980348218507,1.08982080691503,8.63751510951578,0.13742096323996,-0.141144812974361,-0.011296350036687,3.95082586938328,0.629547123101571,9.26710747262495,-0.108710649977173,-0.0363652911151749,-0.0560064284314549,9.19207141163184,1.04190661727332,5.83445079567711,SQUAT
1.72,-0.0311461655986059,-0.220271365744507,0.0394175553115972,4.58246488919835,1.19962291821388,8.88716213297035,0.161234242274731,-0.232393618259478,-0.0204630260127705,3.76525297018617,0.861614666448487,9.70532955512527,-0.112038370535316,-0.0137463052529028,-0.0543100206954565,9.38475435317266,1.13739999171597,6.08647830132954,SQUAT
1.73,-0.028912859056022,-0.267716986677857,0.0168470794887862,4.7759977495911,1.53800808846699,8.87901614446535,0.132631266031645,-0.331762724950728,-0.0228659154500201,3.72471010798894,1.10208789467882,9.77820932542198,-0.147889061927316,-0.0350445928155619,-0.0484196571666192,9.47654285993226,1.43942428119537,6.26991438176569,SQUAT
1.74,-0.0023234107740293,-0.292325125703465,0.0037746927572471,5.30960973718361,1.50684060154159,8.97655961384497,0.0614373487200892,-0.361775392652528,-0.0270141155458998,3.93518967594982,1.00545152580067,9.3532439479356,-0.155879394058999,-0.0475437363068546,-0.0338947512376577,9.50694624077486,1.6294864687592,6.33460942547675,SQUAT
1.75,-0.0100453240605793,-0.288967020526547,0.0234791494049456,5.10608862984053,1.24777189801808,9.3622832788012,0.0698776031917669,-0.365955854842911,-0.0349363517736162,3.93509044211947,0.654911989582698,9.49676285585897,-0.152946456979119,-0.0676204660324679,-0.0089987208253752,9.6082978364478,1.51655089992093,6.59831086272356,SQUAT
1.76,-0.0031575033479601,-0.351802458199279,0.0388791942419325,4.69057290541672,1.07895572694119,9.40523786778776,0.0761843604767182,-0.377182797876662,-0.043661822687749,4.33518464044223,0.819796118844026,9.29835695046815,-0.139749991327992,-0.100163669344434,0.018390024713467,9.80491360515685,1.19382758249505,6.39139934647745,SQUAT
1.77,0.0332339751839943,-0.361264204851672,0.0508970045782836,4.81999688480669,1.08266480440307,9.33544065834425,0.0752843434793364,-0.380326518023973,-0.0531687797650898,4.54534884689888,1.08154267621451,9.33769058595436,-0.114067861275392,-0.128861034472458,0.026156147685382,10.0388091500913,0.911303776472331,6.00366717813316,SQUAT
1.78,0.0479247313647144,-0.411101123593742,0.0667231293207143,5.08082295763236,1.30358142058836,9.22018970646534,0.0829446515641078,-0.39131678100351,-0.0574201274734298,4.51147968257724,1.63762799937816,9.4349365951137,-0.0894169612098968,-0.134303797572117,0.0172280226898898,10.0682093882597,0.718141854975938,5.94321221431517,SQUAT
1.79,0.0260555121043972,-0.460050682088064,0.0905412611976724,5.2521093102215,1.80104956856323,8.845063905268,0.0320586313479725,-0.420000475349951,-0.056375675423289,4.46588667008115,2.00249961682623,9.44836433402586,-0.0859558644019415,-0.140377742620037,-0.011772820140524,9.94109004556979,0.574925339686014,5.89169511860519,SQUAT
1.8,-0.0061660534055866,-0.507665688033115,0.12358467301378,5.31070108876718,1.66000725684691,8.78928439319622,-0.0258705408499211,-0.470809587568993,-0.0479882227181002,4.43495902946525,1.95873007480142,9.46024173625147,-0.104149180834859,-0.149671231588016,-0.0450823330554834,9.97872754651976,0.588662696712574,6.07329115644199,SQUAT
1.81,0.0041470338156442,-0.536015567661927,0.14577086582228,5.40574368499707,1.51073275374045,8.61404370956523,-0.0421977757584133,-0.528781404977197,-0.038415351523428,4.31906455539425,1.44422553890093,9.50288307319851,-0.0983830173714726,-0.141702524348146,-0.0677247999950036,10.1255791306405,0.699265535279906,6.26092539405297,SQUAT
1.82,-0.0161430311944035,-0.574428581547026,0.144622771027305,5.52996335979439,1.40408394626434,8.48772037795824,-0.0606901940586325,-0.573332676764003,-0.032583854640483,4.54735350062165,1.03309267118694,9.55969615160276,-0.0787576441200695,-0.139898302208814,-0.0700842856033538,10.1337162253008,0.981206463447727,6.18750086072993,SQUAT
1.83,-0.017176281311579,-0.609811759450873,0.135937724019361,5.71245051422038,1.48174490700407,8.55218977287871,-0.0198349625775394,-0.638558062062484,-0.0219044974293622,4.56128950792569,0.714891434816931,9.42681880229302,-0.0691065973451761,-0.156495597750992,-0.051920805104429,10.0290404885406,1.22051733778589,6.15281802331642,SQUAT
1.84,-0.0333524432948049,-0.641515544112427,0.125358595328887,5.86851786475007,1.44214318200186,8.55501196972156,0.0317055754046736,-0.686286409756866,-0.0212735376779076,4.54979937518452,0.519823397747433,9.26941823846677,-0.0683361051693318,-0.157394537382959,-0.0249835150627481,9.93295915429486,1.35292153983459,6.34483695928662,SQUAT
1.85,-0.0063033073834564,-0.689829523363018,0.121078147948387,5.76276864614557,1.30432633534703,8.61619951364639,0.0668638042868328,-0.718902474339591,-0.0285204393857216,4.5976087447587,0.54188689078269,9.43389406562594,-0.0709268044166726,-0.154556425057511,0.0058900689863953,9.95037807139471,1.29619566921524,6.33948222886155,SQUAT
1.86,0.0645251994226158,-0.732890999237078,0.12824023760589,5.89036321991186,1.15796797710798,8.58782985338929,0.101781811563084,-0.789583452562305,-0.0415337049284384,4.6567374744101,0.954663280389707,9.40005449399432,-0.0771920330134917,-0.174942540534329,0.0303861681190786,9.83896500177488,1.12198840473516,6.42706037973607,SQUAT
1.87,0.104494191632769,-0.753386094867674,0.149204439933482,5.88080180986106,1.2841546745701,8.51316681153434,0.0853233962316046,-0.852387739561494,-0.0395085117560835,4.77400070086658,1.53176626935083,9.19154798383306,-0.103593625055009,-0.200592436277423,0.0416236692105116,9.76146926218296,0.962096572239721,6.12760301037965,SQUAT
1.88,0.106240322155794,-0.783182698222748,0.167181761651197,5.72715107358583,1.36533156864227,8.53077693251924,0.0390731596628116,-0.892865348456171,-0.0137311358080007,4.94185885572104,1.86957956557466,9.13493040521738,-0.121457550494329,-0.215202079565719,0.0416949393988431,9.79259822305969,0.81886382244442,5.97222281322813,SQUAT
1.89,0.110854297111717,-0.829447219588572,0.185140042110909,5.78992336585504,1.27538583962549,8.56594374296794,-0.0040946624504535,-0.938203155389327,0.0035283062086997,5.08520106210514,1.88393678142719,8.95819960766042,-0.105269396227207,-0.217850574339924,0.0292571337547283,9.90950931837422,0.727059807224682,5.84331551448379,SQUAT
1.9,0.0994036734470757,-0.875686074436198,0.194366136854661,5.85768579709779,1.10238381987863,8.41759716534416,-0.0352982547853102,-0.972702250809834,0.0061054792076974,5.23046787395837,1.72439372479714,8.80785682089044,-0.101204003750117,-0.214154582541727,0.0111399561853982,9.79882237172675,0.781162690816764,5.89970531057987,SQUAT
1.91,0.100904043083854,-0.94043715590262,0.20907675767851,5.98612726191126,1.14643635266285,8.3606782914718,-0.0619544743493688,-1.00364485639504,0.0002194663522168,5.42056027428382,1.38992649032816,8.86945516239549,-0.119571757135992,-0.22742411501785,-0.0014364118138161,9.78012239126758,0.935972764737808,6.00669954585814,SQUAT
1.92,0.0927849849104521,-0.922081942976303,0.214946850331429,6.52238884383908,0.97305280800603,8.07437450327494,-0.0660901160295725,-1.0508864145419,-0.0204592850344526,5.30586907234371,1.3543802305896,8.95375551532003,-0.12544735010764,-0.250335673350337,-0.012917350408869,9.83897763385664,1.09467873423136,5.93101021279787,SQUAT
1.93,0.0899179119503343,-0.914729194487449,0.246507893631892,6.39156069430207,0.80175051823092,8.30241606838395,-0.0667812338921891,-1.10164269250508,-0.0406791595507452,5.33633087371613,1.25298534268805,8.74447040765869,-0.127907496655053,-0.277945495272731,-0.0047829743117835,9.76518426246643,1.21690662724776,5.88516174607608,SQUAT
1.94,0.0910567748372363,-0.925395971788097,0.270801516622766,6.40787534423296,0.751970911721814,8.17429965784443,-0.0739418808009133,-1.1264060972424,-0.0529418521267491,5.61828578228694,1.11229502185707,8.58537620247329,-0.131921467323984,-0.297513541102557,0.001291036980479,9.64761977514893,1.24958338548457,5.88271989238175,SQUAT
1.95,0.107352517709225,-0.964272620693869,0.289095523135732,6.40307559779841,0.792705843177349,8.23925611358728,-0.0781582271930452,-1.16797627250004,-0.0705042236730764,5.58605052300179,1.23231398180349,8.53656824471469,-0.131385796502407,-0.311332944754542,0.0127875629626151,9.6120925590146,1.28250214658227,5.88318312090608,SQUAT
1.96,0.112786460206578,-1.00593212718905,0.301106850489013,6.53669973677255,0.965363380605588,8.00794903773505,-0.0837714144510566,-1.22348433454847,-0.0701154154456166,5.67892431878522,0.996797668948223,8.33840407489118,-0.131193183423499,-0.331439572951268,0.0212303861352764,9.62421126758904,1.30346758615829,5.48257365300467,SQUAT
1.97,0.101802284508478,-1.02322540664944,0.297975213711643,6.59421520421981,1.05109609301924,7.8707091754863,-0.0652227123545717,-1.29250663974139,-0.0669462682821536,5.83121507162116,0.656806866642607,8.33474604120706,-0.121889165637415,-0.349667358384921,0.032866837491514,9.56837606936509,1.21399246085538,5.51064923234244,SQUAT
1.98,0.103005562978331,-1.03959005923587,0.303515982108155,6.60285551450095,1.18322303628653,7.68756282585325,-0.037022683624192,-1.34361629810449,-0.0577519487779283,5.89215094861219,0.428144541173733,8.15728601356259,-0.137082772789101,-0.36946483290954,0.0228339227447127,9.48069078289282,1.08223020596596,5.65973383464144,SQUAT
1.99,0.0811054053464748,-1.06244038101715,0.315619615811379,6.40593414342842,1.46558696610801,7.71921241888352,-0.0317951515679449,-1.3445098947782,-0.0502687037107571,6.28178026938506,0.365388304173802,8.07144082742692,-0.134632184756901,-0.402517849882149,0.0257100308324759,9.46609923901272,1.08527433024403,5.376226877403,SQUAT
2.0,0.0842079923673432,-1.11606175891431,0.3336656726068,6.47782489634266,1.46868602807921,7.64464689028066,-0.129117422531135,-1.23608589614634,-0.0463674586765804,6.46905950454604,0.595085798203883,7.79613796996152,-0.142003503764845,-0.43440215515396,0.0142891166387613,9.4376782928338,0.914565678614112,5.12815764217814,SQUAT
2.01,0.0676797920510907,-1.14697391318003,0.3407102012569,6.57368510910303,1.18403347327447,7.54449821262331,-0.117453594255908,-1.25261843132895,-0.0372246313498297,6.27140553487809,0.517038755369839,7.76789310467866,-0.137821393583363,-0.445941140442368,0.007601364610431,9.33531127932763,0.816190627816148,5.1312252539078,SQUAT
2.02,0.054716112826338,-1.15399781144859,0.348425052229082,6.79755303503725,1.28703963595644,7.23541916382922,-0.11662491615987,-1.27722360259507,-0.032558139486813,6.19663050926074,0.343568573524799,7.66996578815336,-0.13341563265406,-0.473273165261698,-0.0049690792768427,9.29836928511641,0.852423111371833,5.14245078470117,SQUAT
2.03,0.0400877511179882,-1.14899216374249,0.351594946154409,7.01036188990957,1.3857757890108,7.41292898011346,-0.120067791936496,-1.27646592502021,-0.0288581438086946,6.24569866538232,0.326854674523516,7.54217201708122,-0.145460104768168,-0.494803898105059,-0.0079394435740053,9.28628678090677,0.831360225006092,5.11346546195291,SQUAT
2.04,0.0507186839172166,-1.17396918511689,0.366372132533064,7.19076132944429,1.17263574771035,7.0262514533624,-0.115413172995357,-1.30328697945101,-0.0261925685689214,6.35112376129622,0.35484484319122,7.57002046127007,-0.13997708544048,-0.51262258865803,-0.0095770173596374,9.2671884676009,0.88974128760373,5.02148082377634,SQUAT
2.05,0.0612789209657423,-1.19469771263091,0.375079081010791,7.32630978842356,0.877127262446252,6.79066521560122,-0.0922460621400812,-1.3634964584404,-0.0250880294904064,6.38591809418488,0.44047794985226,7.30786435369721,-0.137671253374418,-0.529740446310394,-0.0008172874100233,9.17432478377308,0.943940152937148,5.05934926662563,SQUAT
2.06,0.0823539352181365,-1.19960597901588,0.37753777896707,7.30337619469687,0.977330920743763,6.60002471964276,-0.0786792865852809,-1.4200791463718,-0.0219645810075016,6.48491731858589,0.404503408752879,7.3553630167335,-0.130597356863634,-0.55234227850243,0.0025737985702049,9.06840569609518,0.977589481427773,4.96524621937267,SQUAT
2.07,0.129747813432885,-1.21412391482914,0.372030925380643,7.45519579764017,1.13814811179446,6.38637571186232,-0.0681995657378195,-1.51747654297517,-0.0257984156390861,6.48699723799076,0.530795570946701,7.11509130936706,-0.100790027283279,-0.582833311755999,0.0128486305759695,8.98439589119208,1.05645772407075,4.84705817555727,SQUAT
2.08,0.133998711899364,-1.18014291126121,0.352502187590659,7.55859208549553,0.92620127340326,6.46690336194924,-0.0326844968739255,-1.63136505320841,-0.0306808684575933,6.50305380791541,0.423240925839774,7.03749972245535,-0.0704951276360626,-0.613429167943747,0.0200059190854341,8.96773123302329,1.115907538673,4.74912448460563,SQUAT
2.09,0.131915046161821,-1.21206954798654,0.348414331751959,7.5745290716455,0.746922596332214,6.30352881827805,-0.0456100799673828,-1.62951577000912,-0.0239531038453248,7.04237063180863,0.344133982573672,6.49745015912629,-0.0745927913731608,-0.646741849152228,0.0250214036868557,8.95293763155022,1.09867027251641,4.65550768211367,SQUAT
2.1,0.149231885246027,-1.25954059926906,0.347727885625331,7.53628857523094,0.556113251151283,6.16391360497204,-0.0312880709582667,-1.5607671034905,-0.0168630762346326,7.37863629709113,0.547489309821439,6.49460231912778,-0.0787706672259574,-0.669278819015903,0.0204947956457998,9.0038717720358,0.908996617439686,4.44013656982752,SQUAT
2.11,0.189490226417293,-1.26096319803082,0.35188201657515,7.67604945484962,0.339190842910794,6.16569600259487,-0.0412103339765463,-1.53004120580499,-0.0127967259935367,7.5990396209685,0.848450392140995,6.13194834452701,-0.0864941548253513,-0.678690490394572,0.0214583882750834,9.08455339985652,0.709784953350995,4.28322766700618,SQUAT_UP
2.12,0.226369598460092,-1.22783594777844,0.37110770758517,7.67784065220718,0.450166354179576,6.02185119953707,-0.0228292542951413,-1.51224623380035,-0.0053331927359047,7.90896110751836,0.995614083659491,5.98502256756424,-0.0886361567959956,-0.684297397014215,0.0200587019110989,9.12304594995004,0.573553839050229,4.41287438388163,SQUAT_UP
2.13,0.236889274963708,-1.21571057797696,0.388899345365808,7.87223654397282,0.919625059549987,5.76757763201466,-0.0362305247962645,-1.5177225967107,0.0074850919357804,7.90376282436031,1.33156312531867,5.94371177250151,-0.0849141266014343,-0.698693045772457,0.0118825037454433,9.15525100904748,0.542234700984236,4.22603805667449,SQUAT_UP
2.14,0.211376115850021,-1.21994887324202,0.395955765311053,8.10201484375306,0.975695097836301,5.77169342133245,-0.0837277449148765,-1.52740129649411,0.0105090731132521,7.87513288569897,1.37242255895263,6.06652199302593,-0.0623319519433766,-0.708011903855376,0.0077104562875021,9.25365687593468,0.670175240625232,3.96686092731678,SQUAT_UP
2.15,0.169801795438883,-1.23060938886883,0.394478016508258,8.36249280731239,0.881909841117,5.41784238476057,-0.136912619584709,-1.5595692886245,0.0039276558420305,7.92300382389713,1.19381140030661,5.99020638782359,-0.0239088745812311,-0.707292888223147,0.000672053169308,9.24682402482844,0.780831503366166,3.95961964881928,SQUAT_UP
2.16,0.144251383965205,-1.23677036626987,0.409973599519189,8.30209112926655,0.968323574131217,5.21031007395238,-0.17313203020895,-1.58455046613403,0.000970388682877,7.94773916513654,0.902120737496631,5.75644430969016,-0.0205674611563838,-0.718391436749351,-0.0014024507043209,9.08475218937481,0.888850549346867,3.93954622773997,SQUAT_UP
2.17,0.120281210024985,-1.25157438095551,0.409729512269483,8.33750117987235,1.20068612484571,5.09971359376926,-0.173339983624218,-1.62562831923872,-0.0011482587826144,8.02113248998066,0.455264317014459,5.50993240955859,-0.0145913947125337,-0.736178348288648,-0.0076615220022751,9.01409800476536,0.867938183187237,3.92720100393232,SQUAT_UP
2.18,0.0897071948107748,-1.25123113749855,0.399814869854075,8.32782360747313,1.36181113994662,5.08343458628433,-0.146064655273185,-1.66011334519272,-0.0114637840334654,8.13105092581158,0.279468447949993,5.28955968783399,0.003058939730054,-0.753991218674933,-0.0078451292599039,8.93884142068931,0.747474183680141,3.92099169897822,SQUAT_UP
2.19,0.0440660172070443,-1.27295889663439,0.378321589031969,8.24962534415014,1.55926062514879,5.02347279028658,-0.132938717684421,-1.67341325937731,-0.0140493781849319,8.2991354711094,0.152187790305713,4.98385695789799,0.0119743761430283,-0.776662081927403,-0.0058667235565654,8.83179077204645,0.7609798159184,3.57047158973873,SQUAT_UP
2.2,0.0613449612820332,-1.31721134293358,0.360965792971442,8.28558355781196,1.47539057044442,4.71730710317603,-0.0872574904294757,-1.68154786149784,-0.0163202025466121,8.36979950402195,0.0734814745655554,4.8147899686478,0.0239352093704941,-0.785688144292884,0.0007948482492449,8.63481336160317,0.775236616779671,3.25216169825908,SQUAT_UP
2.21,0.0698407387738858,-1.35812529803628,0.363899051255564,8.2519275304698,0.983518948296454,4.73735711303064,-0.0217683802279926,-1.66202189282638,-0.0045606886936495,8.42768553990201,-0.225236820466565,4.68615326496759,0.0178582723532945,-0.785684346777769,0.0145531966113654,8.49798497639448,0.79779298333134,3.124138145828,SQUAT_UP
2.22,0.141134712562698,-1.37078606203373,0.376866037679471,8.15927677001751,1.03199302269754,4.23514180694372,0.0358724972256329,-1.64957918583988,0.0095865934057999,8.45709181685512,-0.156304724468154,4.43058385254313,0.0134897188450883,-0.785967292515366,0.0269648822415747,8.39789697763281,0.732259520850498,3.06270734878103,SQUAT_UP
2.23,0.132891002516213,-1.38565847830686,0.379338597994318,8.02966593668119,0.90249958664971,4.39872853750623,0.102567315616478,-1.58929189544385,0.012757325419628,8.57989411601782,0.199227919246936,4.43086212849935,0.0075217706569924,-0.785983548534123,0.0407723832257729,8.21493973391094,0.73889756136516,2.88212508551078,SQUAT_UP
2.24,0.136638747339369,-1.40189702881096,0.355023991544075,8.04233781964886,0.824699147703578,3.98051178130664,0.0951360862901768,-1.53554142085154,-0.0067405965553683,8.42470936643879,0.920135376674446,4.17858612617049,0.0226931799090746,-0.781432217820023,0.0518773158310846,8.11848707193022,0.771645271074957,2.81813924661505,SQUAT_UP
2.25,0.165375900729953,-1.37879028664768,0.325977933864301,8.11306099401075,0.666327567911482,4.20296865117753,0.0118301507419721,-1.51236484599028,0.0042821960423224,8.33074710718894,1.78678463893238,4.22937029214122,0.0317591444518159,-0.775969801231389,0.0638703512959204,8.06398418637733,0.814694474687785,2.68803770741462,SQUAT_UP
2.26,0.21406787354578,-1.39017182928154,0.311381180542699,8.28227287743751,0.281052646242698,4.32644760305559,-0.0695874391697781,-1.54004329799279,0.0082862892469472,8.46823858942545,2.33366010313078,4.39106722424419,0.0369284760593902,-0.780993590812598,0.0680145650518668,8.03223645795405,0.778096104757582,2.71804385537583,SQUAT_UP
2.27,0.267845682691074,-1.43547750599981,0.326377847665858,8.36063533710211,0.0382180149232123,4.11585031335539,-0.219568792860897,-1.53145291653576,0.0248139495627687,8.62322464292647,2.20812513049417,4.23253046338632,0.037397894386729,-0.782549427796441,0.0608104556056481,7.97410366183441,0.745966317253733,2.61992128929548,SQUAT_UP
2.28,0.349937152279009,-1.44134193329463,0.343128642251507,8.49548506058724,0.265248698804716,4.01171078004211,-0.370942422556049,-1.52924689711614,0.0394446443131335,8.51517152083558,2.19494741210135,4.11123677544518,0.0229952269870354,-0.805378430641222,0.0452829166124356,7.89738681624411,0.712953281683062,2.32145311745039,SQUAT_UP
2.29,0.375613476923021,-1.45210066009402,0.370519724410123,8.65875880191258,0.55143593458481,3.82225931105469,-0.479668061237593,-1.53480720878045,0.0240640144426356,8.48695704730767,1.82480639829911,4.05577268458455,0.020329337745807,-0.817319034540363,0.0381775495519784,7.80743386518032,0.774670056696581,2.40990019667166,SQUAT_UP
2.3,0.355062011900046,-1.48613378906526,0.397633427896687,8.60213871089704,0.635408627976993,3.64248440245568,-0.542041155387979,-1.55794272026985,0.0197002891422752,8.38498511474615,1.14267822712635,3.43638608599027,-0.009162867991876,-0.82977179600539,0.0368997934383199,7.72723170850287,0.928090599054224,2.29512664694687,SQUAT_UP
2.31,0.239756838701123,-1.51715781947232,0.422316618281405,8.58815892123375,0.929196956965078,3.7432967840616,-0.583899338811334,-1.51596640501781,0.0440035379333392,8.48410493297999,0.179533669130919,3.62252743851296,-0.0086735879112881,-0.819847863679,0.0526008638848713,7.82113021201528,1.00389737462042,2.23417889857752,SQUAT_UP
2.32,0.241531825503738,-1.49873862952101,0.435428112130314,8.59418172020389,0.946627724690605,3.66431749901815,-0.59020377410231,-1.48229144278523,0.044903686784247,8.54561996131322,-0.428790201829247,3.58182906411624,-0.0183618322894118,-0.826987653509308,0.0681640924700184,7.85917056779517,0.985313247982712,2.00057342765308,SQUAT_UP
2.33,0.229589199394851,-1.46794087953113,0.451379646418653,8.5548581602785,0.643036826448481,3.46318460263092,-0.481026488714078,-1.51746303943713,-0.0069064982943392,8.61907023905272,-0.279117021540882,3.16544892534322,-0.0236737032807835,-0.827139921845492,0.0807261672908458,7.85988340197459,0.905210569309019,1.89063251138033,SQUAT_UP
2.34,0.239110930996555,-1.42533208789079,0.450054213800009,8.53159960088393,0.358107592634602,3.25276271953297,-0.361016707089152,-1.51480271902393,-0.0615759500220553,8.7134097298506,6.3919234187e-05,3.11365359674492,-0.0216245203327427,-0.819061365070305,0.0950012762131324,7.78436360050771,0.802979546835161,1.92315688350236,SQUAT_UP
2.35,0.253871918175786,-1.43294114402691,0.449893462422603,8.46837355819219,0.381779706930864,3.25321095257654,-0.327141394227913,-1.51314837155797,-0.126013770599793,8.55385146009299,0.414135599166544,2.77254200748614,-0.0129125517809694,-0.812377151045327,0.0972843824308006,7.69719354603308,0.697694356618864,1.83370472140712,SQUAT_UP
2.36,0.247295531761384,-1.46697050485015,0.431545354723726,8.55113296362156,0.594569194408727,3.2767166094248,-0.256207232355204,-1.47792280838851,-0.171122608150037,8.57143496196398,0.656661863492351,3.1147472468651,-0.0017298816045549,-0.790798794321198,0.0944985948601741,7.64361841708346,0.665333319503806,1.86670308387617,SQUAT_UP
2.37,0.210470956492912,-1.43206124821892,0.418314004989861,8.78484858373104,0.844415319573349,3.32925213934343,-0.23816361545876,-1.4226255052753,-0.204410784532201,8.70692320170358,0.678430897049535,3.04278125665913,0.0093215807552469,-0.78348649801822,0.0813008295203469,7.6445232722097,0.674127083469167,2.00063948667514,SQUAT_UP
2.38,0.147381658160835,-1.44422801876774,0.419232266580682,8.91031754279301,0.946800689282361,3.06804791226435,-0.326309209225497,-1.41462177956318,-0.207768987105309,8.70925115540577,0.523319616645952,2.25810834435452,0.0142454074299413,-0.766146713124644,0.0643579252352138,7.75427653937771,0.671571110512831,2.04532071905704,SQUAT_UP
2.39,0.116919941461934,-1.45827895666294,0.433921300077725,9.08736773452405,0.790344370670208,2.43874819390273,-0.286010954511761,-1.40673996421129,-0.198379850795368,8.83690773578055,0.43992915890346,2.44064109165207,0.0047611907876406,-0.77122375919846,0.0522777487958999,7.86560520594281,0.569102940412062,1.70449894982133,SQUAT_UP
2.4,0.104500791622119,-1.41646563674606,0.432871256332451,8.99133220497601,0.313416517256376,2.28059297184249,-0.305544342340144,-1.41645934299848,-0.218785838404804,8.86904638465273,0.308546340488927,2.2446412447514,0.0227935121192796,-0.7972000181022,0.0465346989679337,8.04743062558236,0.433079488750347,1.5879971521152,SQUAT_UP
2.41,0.134043691649505,-1.39550895568235,0.432329769852872,8.9221775196406,0.187894582085314,2.42472786301225,-0.298169644315109,-1.39632147720967,-0.244979699301361,8.88722348459891,0.180811262862867,2.095543589229,0.0454762763766823,-0.791320882199838,0.0443539213443485,8.06563559060841,0.309121454899744,1.65637839036499,SQUAT_UP
2.42,0.18423332482024,-1.39241518233863,0.440378445986486,8.93838126851162,0.019645636606045,2.46689071857245,-0.262298676116187,-1.35046045663931,-0.274658950112197,9.01975216978997,0.0887466463343865,2.3962430407987,0.0540887649833697,-0.806328301984981,0.047153110578287,8.05367809595626,0.390271517722294,1.58412358288706,SQUAT_UP
2.43,0.151078633853182,-1.41427209541715,0.457247357017686,9.01306907321405,-0.059630242622603,2.53509990443777,-0.316617327283305,-1.30873286203146,-0.290349002223733,9.09904674510696,0.260923692412866,2.01054828356528,0.0757742732128975,-0.815168079768051,0.060792032263482,8.07609090662793,0.591277671738354,1.55113798915115,SQUAT_UP
2.44,0.0813897749606112,-1.46283678011769,0.480043045866052,9.05196326290222,0.0626162591302733,2.34490254790097,-0.334250610992252,-1.31531651259389,-0.299748013090661,9.30110518819666,0.499937012136077,2.0215418824069,0.10122197377676,-0.831042751803065,0.0669881585899826,8.11798622861222,0.747420440256175,1.34891352560103,SQUAT_UP
2.45,0.11149715231797,-1.49113124881051,0.490975936196924,8.91052612421235,-0.0937504544426279,1.97364964290113,-0.345631692022586,-1.37745500087002,-0.321709593128076,8.96012950200095,0.559110547394044,1.83685280260153,0.113713291969597,-0.820261976777626,0.0734112547944385,8.14436254935691,0.78355758653274,1.20429676028591,SQUAT_UP
2.46,0.158601538789228,-1.47315373115673,0.481973776812418,9.05492793396574,-0.101106201013524,1.8783581068234,-0.436801629687629,-1.42627362447489,-0.347879017010938,8.9469958624563,0.485206736603138,1.46074218805853,0.0951423261411,-0.811453811515932,0.068767301940148,8.1400895463142,0.732489554796954,1.14091404836525,SQUAT_UP
2.47,0.218171023210797,-1.37215564682061,0.473073934082689,9.1816744076565,-0.139378109543306,2.00295375817409,-0.466621192284402,-1.43357670566831,-0.352295325568884,8.75738033518411,0.0305369591150309,1.54975296878996,0.089763748141829,-0.797063670415805,0.0609038029950301,8.18232899679155,0.673620677511331,1.15264802872897,SQUAT_UP
2.48,0.275763996343404,-1.31905117426637,0.480905960676504,9.23370128235188,0.0872384675757391,2.04408636915915,-0.467725788983788,-1.48472625898846,-0.35712292847759,8.81701144148583,-0.428359844546081,1.3965652695139,0.10509629942312,-0.747540107299318,0.045305834065761,8.19311489993553,0.59346361730419,1.09537690796771,SQUAT_UP
2.49,0.309253925058905,-1.29217641448521,0.49252960693058,9.21071558380174,0.144347110909275,2.12206092700738,-0.472517250562219,-1.47587433289615,-0.346872507792217,8.83681526703037,-0.944881898278893,1.52499553846779,0.115838758522726,-0.707733643322875,0.0392651183849909,8.03917253107513,0.479278433912658,0.950518343844669,SQUAT_UP
2.5,0.256531413457124,-1.38271125900927,0.508139661917949,9.08692549044704,0.250728579794172,1.63444769070742,-0.422472312949697,-1.41719744777431,-0.328880339019508,9.02875712102452,-1.14367412786492,1.82059808878256,0.106520559763739,-0.697856018684485,0.022263090703718,7.94252658087309,0.473122559520754,1.04410061739733,SQUAT_UP
2.51,0.248823958085428,-1.40162988074801,0.510716384402578,9.32726569834465,0.447113717564725,1.38001942208023,-0.335619032611143,-1.41710776399583,-0.318377518680554,8.92314427933138,-0.794630180016574,1.85735437340483,0.113199495020667,-0.673535269354479,0.0028791588021701,7.90022827123351,0.475335290008251,1.11336831905348,SQUAT_UP
2.52,0.31583920843872,-1.32131076821622,0.468848043061523,9.23312173744986,0.380964258137512,1.10086025780728,-0.295184504608401,-1.42182812037791,-0.325692096444752,8.90452558160062,-0.390814441378613,1.54015405246615,0.132444619201956,-0.669045233491327,-0.0034210482314341,7.9045631507028,0.551351532875502,1.02852500801288,SQUAT_UP
2.53,0.431234397162737,-1.25590176809247,0.42518757724392,9.03651645496037,0.165261530750065,1.45355976046858,-0.273608084900513,-1.40185445005493,-0.351037972042776,9.30324938679347,-0.29310412992123,1.6788836765443,0.143652039908521,-0.656886373467962,-0.0038594373696916,8.00476154201574,0.615287747945042,0.866687939987903,SQUAT_UP
2.54,0.464365786416484,-1.23932451342258,0.401151685015158,8.96482128117468,0.127218432122314,2.17170266283786,-0.280049845370936,-1.37565163025505,-0.356534410457563,9.40030184128688,-0.117657903355501,1.72759815455436,0.158348575915055,-0.631466268287132,-0.0066470977361273,8.07596356589954,0.588508035334929,0.739435969195993,SQUAT_UP
2.55,0.393709270802121,-1.26053006194785,0.376946812757654,9.3349425779528,0.0714238831244879,2.10017609916681,-0.243056698225289,-1.39406093034163,-0.364717938430244,9.67446075805098,0.0558914600387326,1.16800476643646,0.164963974397195,-0.618704629723168,-0.0086896468193743,8.29217723674264,0.620810527907103,0.622584180233612,SQUAT_UP
2.56,0.323636446386272,-1.2525069087997,0.334388981023912,9.54547318689645,0.0101989071515156,1.83261881687637,-0.223845844577098,-1.38273136592313,-0.333572806018373,9.47193266858151,0.11173880950713,1.25289485574006,0.170698411126861,-0.582206312564184,-0.0027519920528277,8.45435371812201,0.618757893353485,0.733247444756262,SQUAT_UP
2.57,0.242803331155535,-1.21005943867156,0.301216894275441,9.34953317145432,-0.181151223839894,1.92807708876436,-0.208975546129083,-1.38946028059332,-0.294210454392653,9.42707620407314,0.486255418178296,1.77201433899557,0.174527555719585,-0.526999660919465,0.0005772770469672,8.39610445706586,0.558502340719682,0.86822914751907,SQUAT_UP
2.58,0.211840688442421,-1.16396412348988,0.291167486942922,9.41774239471814,-0.019903985701126,2.05173191534899,-0.137336571408028,-1.38582697080908,-0.256070619223632,9.31960954270489,0.770306268544972,1.94918694635558,0.167327353640575,-0.523120454603542,-0.0038245292524533,8.41609514983062,0.543099398706353,0.725185940901571,SQUAT_UP
2.59,0.233187043032168,-1.10046763257411,0.285037175109479,9.81051918540312,-0.339833325275961,2.16316357171628,-0.0647102123014954,-1.37050107290774,-0.252306820549001,9.40528678984196,1.01947717803679,1.70714183143843,0.168003593622507,-0.528234521003826,-0.0095132805935648,8.38431539821589,0.587423363758501,0.72793103825868,SQUAT_UP
2.6,0.289262791664755,-1.02338381717437,0.250151702833392,9.61121202719584,-0.6204191268882,2.21219196785465,-0.0143420030881868,-1.272613320001,-0.231846269468144,9.52905593388307,1.50046160051989,1.89236215753876,0.173490528032409,-0.532457266001412,-0.0138725131633972,8.45767351777494,0.726571961104997,0.711130679469572,SQUAT_UP
2.61,0.354060861913216,-1.01287742233257,0.209096492354854,9.3584569532136,-1.13889482250971,2.053543231563,0.0353651657874773,-1.16063093626079,-0.229089658909657,9.65979221409316,1.94891991039322,2.05782755300188,0.168504011907761,-0.524226009084289,-0.0170313284517664,8.52874977522236,0.720338177484732,0.560990507977178,SQUAT_UP
2.62,0.394980268136922,-0.984629550303781,0.187748624742224,9.60962799067678,-1.22032586743288,2.11539308794443,0.0167576526496483,-1.05668092840507,-0.229707372614015,9.50216256057016,3.01123643553932,1.95958183798528,0.166968308640325,-0.51343989965941,-0.0204932806143737,8.62413402885348,0.709360580566175,0.433565015431142,SQUAT_UP
2.63,0.450432366776762,-0.963248618747009,0.185759596758685,9.6878174671111,-1.04262084293793,1.85206140992547,-0.106617309530479,-1.00283998029107,-0.225403118696642,9.0260077197024,3.338772934586,1.9899920593108,0.169273194303553,-0.506608241990799,-0.0285356620421474,8.72925473449414,0.614558274591592,0.462222860226264,SQUAT_UP
2.64,0.51445871533255,-0.977449584228624,0.188841938826436,9.47677182158225,-0.68858129662393,1.46887156713114,-0.242129714797034,-0.988379631895992,-0.219902163865441,9.13090123127015,2.91306986473784,2.22055849969685,0.144930305304696,-0.471002965689993,-0.0356555390837904,8.8676568321877,0.539253311222284,0.511053309256489,SQUAT_UP
2.65,0.477480923220162,-0.958280748192796,0.208850415083673,9.55353096729886,-0.131740649429861,0.920157163240803,-0.44410966321325,-0.95456441203548,-0.236498049948171,9.36294670085978,2.3588425009589,1.772293231967,0.120311502341916,-0.445102509447175,-0.0498887385051781,9.02293768706577,0.434714633980337,0.563197101720696,SQUAT_UP
2.66,0.388218584635321,-0.917890140423873,0.245336547205322,9.77900303728786,0.524605542425455,0.534244995807454,-0.647739312736175,-0.941943090498432,-0.264060821678818,9.81441699291799,1.44872406685576,1.27702186127327,0.111864652381383,-0.436767629696489,-0.0591363657373435,9.15871375343513,0.42085371942977,0.657538493685958,SQUAT_UP
2.67,0.240386307845282,-0.893720709342212,0.283982983007026,9.83269112292532,1.02745517698502,0.201279342800163,-0.744289504186716,-0.965720022597988,-0.29648499946807,10.1251215336853,0.375722692469336,0.818763580773206,0.0985006522449027,-0.406532717713802,-0.0757673273882281,9.43095452232976,0.345113248657807,0.767769765165738,SQUAT_UP
2.68,0.0593199023794063,-0.86355475243598,0.316778898435726,9.81007565374638,1.34578654541332,-0.0967193694765149,-0.674782268356248,-1.03350556502076,-0.315308488386626,9.96746853812184,0.116040098897192,0.0313185233476821,0.110692207070762,-0.378920750480898,-0.0982699300335077,9.5385313122246,0.398638660136165,0.885148731182524,SQUAT_UP
2.69,-0.17677596080487,-0.800585674668238,0.332110877802338,9.75640083805313,0.894555405452259,-0.0387439648409997,-0.519922698572252,-0.956608395851904,-0.307348382721645,9.74012670752724,0.482898431983779,-1.02380500802158,0.146129015226866,-0.373089419777329,-0.117555362471567,9.61110032038746,0.530160046494705,0.924535343907687,SQUAT_UP
2.7,-0.401319248239508,-0.726860449850271,0.327470066613252,9.72023620531834,-0.152477594676042,0.318976441580485,-0.323787122058718,-0.838314351894871,-0.318414049335803,9.85493467503546,0.783568734524364,-1.20649052577136,0.187656785852825,-0.384169932172127,-0.122154215066005,9.64519905699674,0.743251178775775,0.586042055052421,SQUAT_UP
2.71,-0.526860141013131,-0.683936664808825,0.320954782669507,9.71936679872364,-1.43098692866082,0.571319389465389,-0.0837630800574196,-0.6846274809352,-0.295273534440559,9.86698879254534,1.81423284254402,-0.336427867874169,0.206123050093987,-0.408324817638521,-0.118313507695005,9.68287518745936,0.784918654529508,0.314245285120159,SQUAT_UP
2.72,-0.500896681074856,-0.635032359375986,0.317928797101233,9.89557207137784,-2.40868933746647,0.601863709206377,0.0431050254801978,-0.622534814872778,-0.258934432352065,9.74959876957918,2.80828643536686,0.414349325658766,0.206055706666526,-0.428622462144016,-0.0981133315527882,9.6202793555458,0.919951722955204,0.29056145621288,SQUAT_UP
2.73,-0.348849232286097,-0.556692224016227,0.316488648131172,10.1844369513542,-2.90208094092062,0.72546895408426,-0.096204758405026,-0.57212374147792,-0.20519149422476,9.75789774685333,3.12170847537607,0.626279654389214,0.227737763069609,-0.41225712270127,-0.0633431279835499,9.61323485137354,0.975875163144796,0.516784723354085,SQUAT_UP
2.74,-0.161339229317378,-0.508203651136922,0.307794413558912,10.0673743829639,-2.76949247064324,0.777741324475586,-0.285015332857882,-0.533236090214114,-0.150344822795777,10.0407955427888,2.90067866925563,0.682391150013628,0.225682626457482,-0.409613100353941,-0.0307174494132485,9.63246224802019,1.09364028038129,0.557442373452089,SQUAT_UP
2.75,-0.0307969624958997,-0.492869714493839,0.299363850879891,10.1601544335098,-2.13897514413452,0.658941018668548,-0.417799223549423,-0.534266335626658,-0.130426405113293,10.1682741225017,2.27674982492618,0.536925109181097,0.211335433250411,-0.395860908613436,0.0018905443559175,9.81123823026179,1.22661207439214,0.371730679796198,SQUAT_UP
2.76,0.0620862147696539,-0.45696960245493,0.269396514486581,10.0989741676145,-1.5747476145282,0.390858834823418,-0.477116706330401,-0.539918558328138,-0.119492908456571,10.2256294732789,1.51065450709909,-0.0113040711638187,0.200204446636635,-0.364878623347157,0.0221009871344129,9.88888473815188,1.22814800012245,0.319401296490105,SQUAT_UP
2.77,0.0987530792495332,-0.429849764895529,0.227433307850018,9.72079685727099,-1.06349342498877,0.17319017264039,-0.434646290550102,-0.529826174382249,-0.129905988130876,10.1139244804293,0.854862754423687,-0.549568596700991,0.147823270299095,-0.333688826947035,0.0281220126382563,9.88563461224525,1.23941322507522,0.631144315455582,SQUAT_UP
2.78,0.117341796681989,-0.438473953978224,0.209556732228592,9.69472738473487,-0.554597743032509,-0.368656312789712,-0.274287930171074,-0.471251792143733,-0.152443956625287,9.93062186031524,0.195805909529517,-0.876437591351796,0.0771905402638419,-0.309368962924079,0.0313839203086726,9.85799156891498,1.2113088424759,0.831330110178869,SQUAT_UP
2.79,0.117274059439109,-0.446242897594211,0.199396511770901,9.71745105507298,-0.288379617708003,-0.770674586763047,-0.0946530881143875,-0.412408635003975,-0.174381893673345,9.880714798789,-0.0256802066723245,-1.18444474229635,0.0333840849088221,-0.298875676870586,0.0260953283044255,9.87385847720118,1.255192676317,0.792090121662127,SQUAT_UP
2.8,0.103688565208262,-0.455871785612029,0.19164334715663,9.68684150201299,-0.230586481338267,-0.919760915951725,0.0954185292906083,-0.313620937127349,-0.185919422769895,9.8849595938772,0.426454206562044,-1.00419248574882,0.0034713976093503,-0.284775290323916,0.0133210212274171,9.84619127007692,1.15758539256363,0.756470486899975,SQUAT_UP
2.81,0.0571791482648389,-0.465221747409811,0.201138838417913,9.75991512131254,-0.277660745936236,-1.04355463859514,0.224910281083402,-0.270973623775563,-0.179637124492129,9.702444297071,1.12409189779864,-1.20616801413027,-0.0356468616659668,-0.266714233312167,-0.0052380853084157,9.77122222702054,0.995683219570462,0.715278797765378,SQUAT_UP
2.82,0.0006862912513158,-0.430051148190571,0.205392399544065,9.96155504848543,-0.518590808319216,-1.34819574417508,0.286946859778973,-0.249450264671828,-0.175775373716753,10.0794646770072,1.71723497401284,-0.961985028765652,-0.0743684771016447,-0.252413807201145,-0.0312332933950759,9.76950127302704,0.817705221448918,0.690639404023227,SQUAT_UP
2.83,-0.0113295991138689,-0.374258454924038,0.194890152421581,9.88713775808249,-0.992395974966743,-1.49054710910177,0.327847517558071,-0.148905653214431,-0.132219847002949,10.0803837781849,2.30124370603856,-0.987520103981539,-0.0981653491269146,-0.224180690455764,-0.0501779840675819,9.68728212493113,0.636545020251472,0.658325420913121,SQUAT_UP
2.84,5.76973613467e-05,-0.3036377392094,0.182453006236021,9.89158429791208,-1.32432779742023,-1.46416478138472,0.301196434631165,-0.123722910225593,-0.0943831233270004,9.46961253742956,2.45217112483369,-1.06373779898602,-0.0869644150181529,-0.213103833622626,-0.0658840211085042,9.63656157938475,0.492990425095857,0.592267459803478,STAND
2.85,-0.0272355171160193,-0.264709096785509,0.168465161864214,9.6976779391379,-1.401902497299,-1.34601026384395,0.265227987824501,-0.173548412536178,-0.0773743234019751,9.41556451348863,2.37904139762845,-0.97980243160315,-0.0579140843198261,-0.203554697269591,-0.0689799195868713,9.63890490997494,0.439290104669662,0.530252737267913,STAND
2.86,-0.0373200097704398,-0.246578178734496,0.1597300535367,9.66620120499599,-1.47312062422758,-1.47955185400979,0.213975382900191,-0.185131038032889,-0.0532638279223527,9.59005123473518,2.28047344911901,-0.874646263962091,-0.0253595744442702,-0.185943032685622,-0.0621853282819394,9.69229357619146,0.454517097950993,0.500552862500795,STAND
2.87,-0.0361811039278536,-0.24114160954727,0.153528407865284,9.50764832060481,-1.48786914999303,-1.58799728906706,0.134537432043194,-0.191909709254021,-0.0400700656556944,9.48805746799764,2.35214193070125,-0.768568384869282,0.0136500746421827,-0.159406157353058,-0.0489240307678045,9.69975173708505,0.562750968633444,0.49372973579268,STAND
2.88,-0.0693596148517505,-0.239829343278942,0.146660140211056,9.45218140504073,-1.35004804496096,-1.7984282754758,0.0522818364680579,-0.20688177749065,-0.0307983928521549,9.40177122755003,2.31972845080386,-0.798475700175026,0.0498557011751184,-0.156734773948351,-0.0289044515481956,9.69395731403354,0.636826316756228,0.294417960979396,STAND
2.89,-0.091696079607678,-0.236238236408911,0.146554737120636,9.31340081449616,-1.21907275290787,-1.90682274226691,-0.0227245629305508,-0.206845041048055,-0.0434129773673613,9.55074469075913,2.2305423819723,-0.809938621749838,0.0726641225506415,-0.157323122718563,-0.0152649712258843,9.75753763793477,0.697875635368981,0.409131298972736,STAND
2.9,-0.15318154724474,-0.233003071568811,0.144752618968678,9.39203087920683,-1.20781761892342,-1.74254999050235,-0.0423600398578986,-0.198817846467161,-0.0743154914283863,9.69400813216488,1.99672356423058,-0.93134993139763,0.0763263057684195,-0.146460307058137,-0.0086790361204564,9.82447795955789,0.718268057509493,0.453586024702183,STAND
2.91,-0.277454454687208,-0.200440503598601,0.137194321693251,9.45066724608148,-1.27988435675157,-1.59027408396424,-0.0283461346745976,-0.130357530509946,-0.100386155949612,9.78880206991951,2.0491430980499,-1.11690999824144,0.0872402125210081,-0.127411298707628,-0.0033953923401998,9.98273849380549,0.746722984566611,0.404917144418458,STAND
2.92,-0.404865501497656,-0.132846701281037,0.122621753255771,9.50354095664614,-1.444789754994,-1.40241306135615,0.0001855083493945,-0.05836442398867,-0.0816573718720918,9.52239096565657,2.45931211645669,-0.957400212518961,0.103787003213344,-0.102769253071285,0.0040255076844319,10.0467450646667,0.782675617136128,0.400380728878824,STAND
2.93,-0.430964441619819,-0.0744504309444573,0.100425261287768,9.46952599181622,-1.70391447982912,-1.17936374106999,-0.0507765103300818,-0.0180598718608452,-0.0481055979728036,9.35820717800334,2.75436902679574,-1.12613965746098,0.108758791354868,-0.0841234286750599,0.012931314993524,10.1401672921042,0.833993937899202,0.389650562499475,STAND
2.94,-0.406548623112829,-0.0506608156812355,0.0814390951651691,9.37935012143009,-2.13747136688998,-1.05659749028776,-0.152408431807828,0.0257118217791515,-0.0833488022373918,9.93844907569061,2.34205605536974,-1.69517460526987,0.112873325707113,-0.0634196619972935,0.026384356642652,10.1348664035646,0.889074453505027,0.399530871935426,STAND
2.95,-0.3254696230922,-0.0527727828792997,0.0436649882797959,9.73240678252941,-2.53508357200803,-1.06573505181841,-0.0453045719610512,-0.0298174061215038,-0.0411021088954912,10.3494075961538,2.02284541506319,-1.08656835987115,0.104763921582732,-0.050535925393803,0.0368991199999923,10.1048721476993,0.874284269937046,0.551381875979463,STAND
2.96,-0.22832066895956,0.0152604361693598,0.0363229616815679,9.97376174309273,-2.30076755594673,-1.11986457693937,0.0364867805257058,-0.0621938448019657,-0.0187010068285942,9.70693650708078,1.99753649307761,-1.82305683810843,0.0988739703580716,-0.0305240289650318,0.0435070601950892,10.029819216556,0.868767590539311,0.56179575004239,STAND
2.97,-0.105024803476615,0.0412532647731615,0.0441956633762188,9.91909647676464,-1.47223539629627,-1.136791133125,0.0019722555858886,-0.0626146906123044,-0.0137473780370328,9.2758775244604,1.51993474955719,-1.76623035839324,0.076773672888486,-0.0091207230757846,0.057630959743009,9.94365534252529,0.835694926802385,0.555350803753406,STAND
2.98,0.0103169828200916,0.0107734474544365,0.0080595321045429,9.95440291258166,-1.8374997342019,-0.919884976493333,0.0860831909430501,-0.0018333881207464,0.005749915679683,9.59819193046726,1.84098719883008,-2.17301947063068,0.0459198006794327,0.0179602800333245,0.0689336187361886,9.93319400064334,0.663223705513781,0.480916087823971,STAND
2.99,0.0375896533640335,0.0137301319609647,-0.0084402065001718,10.1272634776093,-1.42003965331659,-1.3166102812967,0.173080374583812,0.0290513647510256,-0.0275133106939559,9.37820107711255,1.27469960553596,-1.9144773330192,0.0231651408533141,0.0239411916505973,0.0828630660557888,9.92478305356327,0.533213062976601,0.50225167430494,STAND
3.0,0.107973187412766,0.018585552073529,0.0010366856266836,10.0480036333007,-0.506437093450921,-1.66963292565787,0.250245032200991,-0.0085654260717603,-0.047655815615008,9.22478915620528,1.37856691967219,-1.74640799124148,0.0269936502774828,0.0267472124019736,0.104031330036273,9.97376418285984,0.469347068658739,0.427384932280522,STAND
3.01,0.110419834545013,0.0475414697474311,-0.0107212588247062,9.9608286633469,-1.02979030123495,-1.581547506118,0.260845607719698,-0.0341353258395145,-0.0673080539313501,9.62566194587099,1.46917876744567,-1.890649992951,0.0437069786505881,0.0242717409347489,0.1214128556876,10.0235796832885,0.567777059998398,0.529777564860714,STAND
3.02,0.105371516565262,0.0534268785665517,-0.0192825249016985,9.58726627021881,-1.41188870565769,-1.55095097878541,0.268260900864734,-0.0261465519874688,-0.0533466465616604,9.60294182321227,1.78650470496375,-2.04624119162163,0.0530232702915824,-1.1728988997e-06,0.125786348192715,10.042033834084,0.776473293758854,0.36941925342364,STAND
3.03,0.115233594463189,0.0206456070976967,0.003744065262121,9.44233454594481,-1.33094203399385,-1.69062875646622,0.321746741487625,-0.0300470772627094,-0.050409658814218,9.50282056003983,2.0464164615282,-2.0384965482461,0.0837292785206901,-0.0258898076335448,0.111333722982153,10.0083466113139,1.09251386105266,0.150835267733839,STAND
3.04,0.151260292718064,0.0149476707694424,0.0194799568213062,9.34116477810728,-1.29266765019106,-1.8292622137991,0.320275042709664,-0.0342178763956282,-0.052729959854831,9.47177428314473,2.25566123659727,-1.77632858835157,0.126587399329655,-0.0440544070212579,0.081169012165246,10.0211273507524,1.39608577685633,-0.0780385575263519,STAND
3.05,0.166226199486015,0.0329018193080521,0.0145057617118651,9.32685836148888,-1.5624213066628,-1.77870082108581,0.284602764431079,-0.0501793570057851,-0.0580122097887445,9.44545447935503,2.52154576004862,-1.51389015884232,0.136449837507852,-0.088202631155026,0.0546287020536893,9.82732360892315,1.53094888379505,-0.294635192404145,STAND
3.06,0.145972238730317,0.0360709419901186,0.0130775386248713,9.42141545413642,-1.66081612307108,-1.64112838933923,0.252818711572512,-0.0796711595559025,-0.0648636685106363,9.4189643581695,2.4651196892393,-1.37362083938398,0.0727579208640719,-0.108523989022817,0.035668968240029,9.71909867790475,1.47009885063074,-0.225202067529096,STAND
3.07,0.108672808189004,0.0274610994233256,0.0255814104833714,9.45550927559378,-1.40760314677412,-1.4813078753135,0.187928315069333,-0.0896073280530673,-0.06462197422885,9.45227778176858,2.33294825796014,-1.37800256369845,-0.0002680483256194,-0.0964824366958623,0.0333768604500886,9.76854434743648,1.43613011108097,-0.190818153261438,STAND
3.08,0.0588865774249628,0.0148333165183575,0.0346742339648787,9.4239950152271,-1.0398472438766,-1.40749451503159,0.140883568994165,-0.0864804556866022,-0.0595900992324342,9.52794064774376,2.23926737323413,-1.31361512469237,-0.0348691811350094,-0.0707754195138698,0.0559885937159138,9.82937097520998,1.27681256435912,-0.490265815178155,STAND
3.09,0.0170016023769418,0.0103241176175862,0.0360827739975454,9.52706289616391,-0.85894627779071,-1.44701857210233,0.0971175049468943,-0.0604135811563787,-0.0350779361398693,9.59671279075641,2.17854142877329,-1.24308555258612,-0.0678855365762124,-0.0398126155845551,0.0702439223429544,9.80561536218326,1.0224256126517,-0.478482641845562,STAND
3.1,-0.054587675323045,0.0118831562515108,0.0510870494157107,9.71060502683141,-0.719769372940784,-1.44324994053816,0.0386655136531376,-0.0358078522988783,-0.00734409624991,9.6049651852397,2.03510979382833,-1.20858890368932,-0.131171822464309,0.0092906514801005,0.0810159129952727,9.89607904083771,0.916616894960449,-0.205919413884909,STAND
3.11,-0.143171607849543,0.0116627016176784,0.0646571862802651,9.90802999973271,-0.708712109403676,-1.36936100121683,0.0007684253027997,-0.0248479581528349,0.025821584580415,9.65337339127247,1.93641482949145,-1.02747118269341,-0.181818525829439,0.0664509073420792,0.0806690224380575,9.97858389122247,0.762043380290122,-0.0451752289031807,STAND
3.12,-0.240535154355755,0.0253157452931596,0.0634117416922141,9.76636231599208,-0.770665792009894,-1.26043685439513,-0.0538898209841168,-0.0149184825944959,0.0447968472944211,9.74396950299048,1.81704211983298,-1.08184505009208,-0.212198781050808,0.104799855421937,0.0770573323800852,9.95764455470796,0.665472916949046,0.0071164308421936,STAND
3.13,-0.296213889456552,0.0087194448019341,0.0614037232050723,9.60611589836581,-1.10650440347873,-1.39651579625224,-0.0705845353396595,-0.0078462668850343,0.0577513321027637,9.61202444384629,1.71657282445629,-1.13018699921811,-0.213934487421056,0.125208888676373,0.0584388074451036,9.79840720848562,0.613862593205905,0.0838970068228676,STAND
3.14,-0.32832285260738,-0.008882892459793,0.0651056958610534,9.50791291382258,-1.47434207647987,-1.30185582835634,-0.0694543512076583,0.0121604197475294,0.0577040176445741,9.53133993222827,1.62714430773935,-1.33989265684041,-0.207128108652584,0.126314004775743,0.0282587179136283,9.6253715785525,0.57841698183318,0.212190375011763,STAND
3.15,-0.304036546880338,-0.0176041462500286,0.0628821011816927,9.54952782098193,-1.80974946480326,-1.24604362997937,-0.0677242861640056,0.0364811587914729,0.0527191594096622,9.5347525306456,1.45594843062631,-1.27056325018614,-0.172916692204493,0.105859772902762,-0.007253662469407,9.47780835560007,0.554614606369219,0.156612322217842,STAND
3.16,-0.251616819575757,-0.0158118367568496,0.0619932605483062,9.56368314955694,-2.02203163482259,-1.33638103982068,-0.0732176958165786,0.0673646381035632,0.0473394909787573,9.49840627286903,1.38955259306223,-1.25892182848147,-0.12201328846374,0.0666478273282426,-0.0334169648667451,9.44435341277627,0.533919567100592,-0.0005353027538731,STAND
3.17,-0.20432870940258,-0.0318983182870134,0.0624845750025954,9.63916101301792,-1.93848654336963,-1.05595387290129,-0.065276238543914,0.0853575224811179,0.0340815222408152,9.411056841986,1.43112645821775,-1.35259214370268,-0.0639259423370604,0.0259412189074356,-0.0461379153621065,9.40693394902515,0.535453431413677,-0.0632767193627775,STAND
3.18,-0.179028577377005,-0.022536385609088,0.0528220285472943,9.64287749477081,-1.86734565322894,-0.886918558121074,-0.0513898833146264,0.0847737916534324,0.0290463781239198,9.4906881377706,1.33129455887456,-1.26737473726707,-0.0231556809473505,0.0007681955924864,-0.0523757316578282,9.39121006003995,0.533840964852726,0.0174468286089838,STAND
3.19,-0.1671446784932,-0.020762441303693,0.0403839111010721,9.79374675907963,-1.88631060447242,-0.706562350954592,-0.0328286867875253,0.0749324352358404,0.0191626145569463,9.5360652224916,1.33501223334999,-1.2191589532543,0.0159523314881057,-0.0080844501734823,-0.0520141221188781,9.50003024943418,0.595589473172084,-0.0623969901413278,STAND
3.2,-0.128261346143372,-0.0040225406739115,0.0279196834417899,9.89073035654523,-1.71373486526495,-0.800845034672077,-0.0519445930662719,0.0453083617552085,0.0147966262591329,9.66741463842743,1.32721492576128,-1.36994723327752,0.0464914856902536,-0.0179537151423614,-0.0414935563652232,9.69957162831177,0.724216768319868,-0.195574175321477,STAND
3.21,-0.0546532818541171,0.0152355767125785,0.0036501205892444,9.88468006280197,-1.60713730910792,-0.877430895777211,-0.050053281828791,0.0119679896745389,0.0061889126715429,9.68267811790394,1.45056203778907,-1.48852044100219,0.0555183879435662,-0.0234709067048582,-0.0356313786878623,9.89154259219848,0.772505141196939,-0.21717564352191,STAND
3.22,0.0177723087852626,0.0386394783938547,-0.0198171321546812,9.77602578820924,-1.5822245252522,-0.966729745945476,-0.0367333660731158,-0.0019663983977308,0.0088072970414827,9.56343608717202,1.4551005744867,-1.60956469712932,0.0656780798385835,-0.0146469476607664,-0.0232634352562171,9.94326956112048,0.760521628208818,-0.353470302894422,STAND
3.23,0.0734706569972859,0.0277188229697335,-0.0285193127148305,9.61407438616245,-1.47295526395903,-0.884483386609036,-0.0148831775613165,-0.0126828370517686,0.0091086820914158,9.56265033291862,1.3753471214688,-1.53894019014708,0.0762471963809096,0.0052961294459207,-0.0071790845057281,9.93943715503858,0.722072718126131,-0.298104247800837,STAND
3.24,0.108949267202721,0.0187208010489611,-0.0299058004904264,9.61706018079009,-1.3427527816863,-1.00639172164897,0.0282047699343152,-0.0079648758388901,0.0087185521876283,9.55645196558111,1.526404650274,-1.47938626485859,0.0732870543792948,0.0084244786733164,0.0068098864569968,9.90243576034215,0.626717765095717,-0.177091212863012,STAND
3.25,0.143516730066989,-0.0036905401485071,-0.0175709035979699,9.64276288858357,-1.23664122582908,-1.19527019824517,0.054606873608102,0.0037232851277573,0.0036233936527595,9.49319133810614,1.70670916054894,-1.47974680242914,0.0656845565719482,0.0081712838872348,0.0090593098050267,9.86444201034184,0.567113045982158,-0.135926514946223,STAND
3.26,0.157525316931625,0.0014992658282511,-0.012996368265129,9.76360150889297,-1.16011471402456,-1.36899791981616,0.0501660035302616,0.0083669791604369,0.0027412696651281,9.60071181791095,1.71958210950724,-1.22831786799188,0.0703644638769806,0.0075790039440876,0.0102517395221417,9.80860631885116,0.634043218532463,-0.133780833859291,STAND
3.27,0.150755580193338,-0.0023509952598069,-0.0105045363445256,9.65354344107443,-1.08935638582829,-1.36755043740492,0.0204538029657061,0.0303649326283448,0.004286378015348,9.6412678203567,1.78852126009882,-1.13210769629985,0.0725462641632323,0.0010712326692728,0.0106014546092671,9.80108257662343,0.646111784197752,-0.209498626627226,STAND
3.28,0.098469967716695,-0.0032113734488295,-0.0084906125037333,9.6248200872083,-1.10970864606205,-1.41508868193718,0.0227155468599235,0.0274955096402622,0.0108245429111635,9.39492285818296,1.98080599077283,-1.28630381011621,0.0807605970236999,0.0004533740947022,-0.0009405052618434,9.76638628508281,0.686425230423524,-0.18358512630548,STAND
3.29,0.0310528324984706,0.0098889487373577,-0.0136351971873707,9.63326024536914,-1.23871081198806,-1.50173887377509,0.0115756410379599,0.0114159713293214,0.003411876140051,9.42160560418521,1.81512279797658,-1.35068031905966,0.0847260134421698,-0.0046603006626345,-0.0179453967724638,9.84246083794482,0.804331428210866,-0.266257204492876,STAND
3.3,0.0054058902741541,0.0192716118412913,-0.0179257917237493,9.54734986135718,-1.29630571744622,-1.64595864579655,0.0057453829537985,0.0051367490786651,-0.0018624838813535,9.53089175783854,1.60670594427489,-1.33749226621814,0.100639418457702,-0.0063416670160063,-0.0285193093796887,9.79991422272203,0.860346952974748,-0.317002335888724,STAND
3.31,0.0029413762871892,0.0056361044648567,-0.0118195861336822,9.39157401776188,-1.25162380524767,-1.53302247170463,0.0161615976090649,-0.0012191972379125,-0.0035079707439327,9.49061666710831,1.63217338459944,-1.32650707566674,0.0976995027397795,0.0077275498946532,-0.0325476699092542,9.73344085687243,0.868568964987026,-0.25510067053183,STAND
3.32,-0.0282941145638863,-0.0010939509094561,-0.0122107508999046,9.46978455545197,-1.13715185178905,-1.31830904620858,0.0396050445756252,0.0033996032256334,-0.0072129023430036,9.52431122874988,1.52913695517996,-1.29042189729063,0.0819941316325327,0.0177142652679185,-0.0335625420143072,9.68999673079642,0.869860348775691,-0.195515061459802,STAND
3.33,-0.0341526555211574,-0.0013130227232798,-0.0103855250192564,9.5572162183152,-1.25892966022024,-1.27169879310516,0.060175486127726,0.0065645424585105,-0.0125295545307542,9.60140447967699,1.58261698523547,-1.13013186611496,0.0607304218197464,0.0262564438752057,-0.0246542538390434,9.67618684667592,0.886656204804116,-0.143054731340908,STAND
3.34,-0.0340339547772028,-0.0097498451174148,-0.0060716956182324,9.6370524487415,-1.28423032716157,-1.19886553478963,0.0770842860777856,0.0209819315346887,-0.0094065879223838,9.6850232100591,1.71395826191948,-1.0168379935478,0.0505496991199845,0.0335870417769201,-0.0290481591649243,9.68356118066014,0.876429932660754,-0.0648859745536372,STAND
3.35,-0.0086841479588619,-0.0035645862689215,-0.0016635042076745,9.76850645471785,-1.23890189072551,-1.12396701517123,0.0619923322338875,0.0388275088317532,-0.0080083966620663,9.75054673124417,1.8257154999249,-0.924019989205846,0.0299493891891983,0.0426429417302341,-0.0311315251743008,9.73509618981498,0.832475223520593,0.0355608508613116,SQUAT_DOWN
3.36,0.0181579738803397,0.013279799388755,-0.0070253776546951,9.90909931643606,-1.2055560530758,-1.15851241588688,0.0392978372046959,0.0520793708502917,-0.0027447884164483,9.77315362357479,2.0108509125137,-0.9409099874543,0.0205055173218191,0.0383160234844364,-0.0252746468081583,9.88153640845255,0.834344066127972,-0.0147365994057275,SQUAT_DOWN
3.37,0.0438418579060922,0.0339415727701178,-0.0094415068409599,9.86363659535392,-1.30837339994241,-1.06257255007915,0.0258537533501946,0.0649808992553974,0.0050607309116763,9.76715469576303,2.12290028491495,-1.00361649911341,0.016632236324415,0.0408473678004988,-0.0204942559764561,9.91213484661784,0.731847312904322,-0.102326789892051,SQUAT_DOWN
3.38,0.0404353416455247,0.0176509487831092,-0.0091972751438634,9.70153753119516,-1.21649874799942,-1.01261562485124,0.0080361681480521,0.0689221501413652,0.0072068602185155,9.63430083522133,2.1375925410711,-1.09081577360466,0.0228887106338328,0.0468555845623132,-0.0122315796687916,9.89896612760738,0.687341032369416,-0.0888093595356593,SQUAT_DOWN
3.39,0.0366166819722236,0.0106684477415203,-0.0119839019709472,9.6873765809071,-1.18825282735214,-1.02565855062625,-0.0232560828738071,0.0518053523479577,0.003518753307283,9.5169003309161,1.99017240822907,-1.29102315299134,0.0338454757065461,0.0441715194459539,-0.0067305710159503,9.77081034396174,0.702994058878136,0.0641900875878381,SQUAT_DOWN
3.4,0.0597545026015892,0.0117701905091817,-0.0136327829334178,9.68140866371943,-1.34778015726409,-1.11481734438895,-0.0532130719591008,0.0354398779585705,-0.0002439089299553,9.44169654419174,1.78599883146992,-1.53048425763242,0.0491728859689424,0.0230620409238788,-0.0093311009894304,9.66854382542964,0.786146193449982,0.0751267821724547,SQUAT_DOWN
3.41,0.118326302457391,0.0116933491067293,-0.0165932851500741,9.63893065622704,-1.48922773108399,-1.2135390096904,-0.0653166352831247,0.0083307721863137,-0.0085432733213977,9.35204913000847,1.53872445145442,-1.72076595151774,0.0639121029651137,0.0069347098779214,-0.0091982573300686,9.61600513542445,0.869305934377822,-0.10167518406461,SQUAT_DOWN
3.42,0.160954459402695,-0.0018368266053791,-0.0161788332961702,9.52874963925023,-1.34288782463597,-1.19311604392578,-0.061216599084678,-0.012048119708987,-0.0108218227812627,9.38399887944353,1.37451758823756,-1.76171906131552,0.0649399764841607,-0.0099145176567114,-0.0047118819818909,9.63435514912751,0.859149818387536,-0.129532510029438,SQUAT_DOWN
3.43,0.179090955032207,0.0042134759410833,-0.0198509330749371,9.55991030304492,-1.19650726613673,-1.26905824218633,-0.0278399834326746,-0.0192935889513931,-0.0165827597429965,9.3830705977361,1.43222928555441,-1.78448837813953,0.055128273979764,-0.0280559338876823,0.0023769383545459,9.65926909353659,0.871453306066116,-0.163739085439927,SQUAT_DOWN
3.44,0.155503464453554,0.0208370600559996,-0.0256333522338189,9.60494132091893,-1.11959001516748,-1.28701106387061,0.0303915146685089,-0.0200149911343488,-0.0189477942105982,9.48283337978216,1.50533787444261,-1.57986713456061,0.054507974307364,-0.0271525825826675,0.0116747590206647,9.71748124449759,0.847291371880191,-0.074239005944056,SQUAT_DOWN
3.45,0.114377470350548,0.0290144972362197,-0.0259500439824569,9.64843757443225,-1.05127989674244,-1.20120162246912,0.0543832806090373,-0.027938473631379,-0.0168023401408027,9.55789086157001,1.67097713116166,-1.46589315232174,0.0495063890168253,-0.0254413516900711,0.022832349441566,9.73599711769162,0.834766446545305,-0.10438390576964,SQUAT_DOWN
3.46,0.0878597620677468,0.0419376063639872,-0.0330161715188163,9.65040551574672,-1.02401035916697,-1.26952874889055,0.053166510280795,-0.0173645855305461,-0.0051658741227096,9.70268074518192,1.827538066584,-1.29359900580278,0.0416053033229031,-0.0204712024191708,0.0308457399543558,9.77046727905469,0.851432716456392,-0.0915034308104695,SQUAT_DOWN
3.47,0.0765308639264175,0.0468940965899705,-0.02753135693022,9.6595797563302,-1.1356177886916,-1.32048074079699,0.048681609623142,-0.0081494487090316,0.001396455384249,9.64308776718897,1.98384972578373,-1.22318292695963,0.0359810782034846,-0.0232825759902136,0.0424575264626986,9.82341032448868,0.856293163253903,-0.105638631454583,SQUAT_DOWN
3.48,0.0598578139237962,0.0492416957198727,-0.0183975138368729,9.65993758881912,-1.11779137740682,-1.28474295333135,0.0539671193091133,-0.0027966015953493,0.0136606402285465,9.52065363154916,1.99535127942789,-1.27066113924685,0.031987967380914,-0.0235306767983462,0.0505961356189889,9.84494263301496,0.824945976805828,-0.0832212078123051,SQUAT_DOWN
3.49,0.0543722626271201,0.0394158962508191,-0.0112987068621658,9.55754461547628,-1.1262489840379,-1.27670747336211,0.0539671193091133,-0.0027966015953493,0.0136606402285465,9.52065363154916,1.99535127942789,-1.27066113924685,0.0289831113717321,-0.010872870366479,0.0481824133616958,9.84064470908348,0.816479769967607,-0.108856230483762,SQUAT_DOWN
3.5,0.0220931186499941,0.0202700836693269,-0.0043701774967738,9.49227896086727,-1.11142665537989,-1.30225848611914,0.0524768927870747,0.0066774721654003,0.0164209010219376,9.50787619977124,1.83791228061976,-1.17625193087339,0.0225414452179968,-0.0007682262133793,0.0462907481245999,9.76812648887238,0.794871511878654,-0.0423169940389156,SQUAT_DOWN
3.51,-0.0038331151273139,0.0270614588300675,0.0087899297999536,9.67700400113129,-1.17763866354925,-1.31949780933082,0.0340584934178827,0.0107533922669815,0.0133649328804581,9.51419006709046,1.73920033247624,-1.25801222591159,0.0251359124572801,0.0105823284188929,0.0209714063439077,9.68697690109854,0.894332461073847,-0.028607507230488,SQUAT_DOWN
3.52,-0.0276089418407742,0.0283288672861266,0.0086172490327244,9.80976304449985,-1.43260841713551,-1.31340319825271,0.0295442628126181,0.0142371876408424,0.0053349227183749,9.5628251517914,1.62344837928633,-1.24955346022481,0.0069755289634271,0.0105699465290039,-0.0093155379164057,9.78520334844777,0.934324495020335,-0.0656288508017103,SQUAT_DOWN
3.53,-0.0337717110511335,0.0293058016347725,0.0095298145596345,9.74383989802368,-1.53558092279052,-1.31541204919882,0.0200588583030525,0.0214341538616096,0.0034196686408918,9.61953120966666,1.60915886468563,-1.33746157778109,-0.0103966990914311,0.0071149895655116,-0.024601311557419,9.82451733322738,0.898325634620072,-0.0668397187540458,SQUAT_DOWN
