time,left_angular_velocity_x,left_angular_velocity_y,left_angular_velocity_z,left_linear_acceleration_x,left_linear_acceleration_y,left_linear_acceleration_z,right_angular_velocity_x,right_angular_velocity_y,right_angular_velocity_z,right_linear_acceleration_x,right_linear_acceleration_y,right_linear_acceleration_z,pelvis_angular_velocity_x,pelvis_angular_velocity_y,pelvis_angular_velocity_z,pelvis_linear_acceleration_x,pelvis_linear_acceleration_y,pelvis_linear_acceleration_z,label
0.01,0.0547295807361242,0.221340918769149,-0.074869220767107,9.62491653002553,-1.02803397344857,-1.9917278045465,0.101073148350022,0.295207477165174,0.0715348688669227,9.59329626001404,1.93856245325087,-1.38542797226037,0.0232706036359147,0.166286409581603,-0.0211940151053439,9.91620020723957,0.614982024376662,-0.204891449025954,SQUAT_DOWN
0.02,0.0539904329934444,0.233711375763538,-0.0756517445229765,9.5538264959639,-1.0282904935088,-1.97860036931296,0.0579767783153759,0.276342098181436,0.0652416643634406,9.51977646751336,1.97673969351959,-1.32444041219895,-0.0120229081094398,0.164268760374157,-0.0285921726497062,9.72403808417062,0.644854999466306,-0.0982503034501444,SQUAT_DOWN
0.03,0.0434378831867272,0.230683502485124,-0.072422419157315,9.53095790822858,-1.0828637194722,-1.93887853959431,0.0401823308624213,0.291731346139753,0.0611887008266231,9.66042905782833,1.79972893843426,-1.31438118792683,-0.0438606797159257,0.165247736889099,-0.0416007117003038,9.65708253254513,0.628134496694285,-0.0600143431679643,SQUAT_DOWN
0.04,0.0153401579886018,0.221554427208858,-0.0751342710759481,9.51285437422362,-1.1501969872606,-1.86845263147187,0.0217224517428301,0.35931744838009,0.0844261613582979,9.7285555496288,1.80783210635971,-1.36813409663946,-0.0655299667533012,0.174656104647438,-0.0508275531391972,9.63752765855978,0.596584325721555,-0.0539670338250004,SQUAT_DOWN
0.05,-0.0059844408642711,0.233508438607341,-0.0735808392494908,9.51066247567402,-1.12714371231696,-1.80121569264629,-0.0010552753200416,0.410275321796374,0.0996438260553402,9.67983031885207,1.88327522834981,-1.36386887952729,-0.0855868666145493,0.182542421187058,-0.0616796555905244,9.67627577740279,0.563914209665441,-0.0339916019047132,SQUAT_DOWN
0.06,-0.0179509230468228,0.264513784259282,-0.0815095674445222,9.55715577739099,-1.02336584432166,-1.85727776075181,-0.0291743676204079,0.424539869346483,0.105538660462842,9.73925916542482,1.84972832799816,-1.38058036722963,-0.0882220492208834,0.19391739124105,-0.0675129874746237,9.6982762850304,0.57695857543153,-0.0224958483456455,SQUAT_DOWN
0.07,-0.0343685523301485,0.300645901318817,-0.0827258180201676,9.66482342034181,-1.00197761833983,-1.89689357365006,-0.0621652073631461,0.443353490803687,0.111459094632106,9.84670010252631,1.79161042707982,-1.32046941154632,-0.0879308008451518,0.199914434987403,-0.0699231042236211,9.70589839305232,0.516353402039187,0.0414505022749562,SQUAT_DOWN
0.08,-0.0643189653864032,0.341748727288298,-0.0855632342097502,9.62735179119188,-1.01660806805915,-1.81308110259157,-0.0658021333004375,0.457988384461996,0.116097060240522,9.7454962517351,1.64174563647989,-1.48408696731637,-0.0930586896833299,0.211503511556475,-0.07073928872155,9.76050389867589,0.550372718388593,0.0933961686105984,SQUAT_DOWN
0.09,-0.109732965294959,0.350263197288246,-0.0942650464335422,9.6063352441627,-0.945375823527182,-1.67583821250926,-0.0618795897440101,0.46398870069628,0.125218210362787,9.64699340981601,1.4802048459496,-1.48447330866402,-0.0884824083796757,0.21774040012035,-0.064322931917134,9.82971430141133,0.503246324649557,0.115052987558353,SQUAT_DOWN
0.1,-0.13030195853206,0.367889884219634,-0.0971568890141165,9.67601279650462,-0.968161958876097,-1.51456495744882,-0.0617822221236176,0.451917027800051,0.120676201180492,9.6288251251807,1.49172874501444,-1.46325705331956,-0.0701988305845806,0.218638260751106,-0.0558952172871367,9.85606202730186,0.477734410411847,0.192239665378479,SQUAT_DOWN
0.11,-0.157952648281488,0.423884899251542,-0.107604582197882,9.70932014001244,-1.14635708230586,-1.48528506577135,-0.0589387771885107,0.445492419257171,0.113026286514683,9.46443037047021,1.65946454860414,-1.73158952065597,-0.0406332506795688,0.220233997727344,-0.0442923682611665,9.93812869926862,0.467333188230201,0.122386906077976,SQUAT_DOWN
0.12,-0.147428090536212,0.462453003680349,-0.115956148119735,9.72551810976095,-1.32999013268551,-1.5841212183875,-0.0163168404651828,0.457064162147682,0.103796117778109,9.3899979406449,1.6791268505748,-1.86553402714663,0.0005284232870508,0.23050369440122,-0.0289604520856621,9.91433492104661,0.473099836510429,0.0713117069537327,SQUAT_DOWN
0.13,-0.117950811778789,0.492590598351763,-0.121636190766964,9.786975961131,-1.56445294399438,-1.57498171606986,0.031152987229746,0.481364325044872,0.0982062695083883,9.51909778073747,1.54785112453693,-1.71941501923292,0.0235587463917155,0.251251107102662,-0.0188600524503102,9.98391637417129,0.421976398553426,0.0958971722316667,SQUAT_DOWN
0.14,-0.0999058226800912,0.525055196895058,-0.12838620443461,9.66906048854942,-1.68773364089118,-1.53110681819763,0.0578482117678164,0.532801848205585,0.112418871772571,9.65840075686068,1.59552277191465,-1.65811993994722,0.0444304865489443,0.276506429462604,-0.007471547083848,9.98790712215159,0.439095878581613,0.0645755044927362,SQUAT_DOWN
0.15,-0.0715608445691266,0.548456292152366,-0.143867142222729,9.57547158055914,-1.74171002695065,-1.47825866552648,0.0665879797351318,0.605334056385516,0.139232648446143,9.6219780649249,1.78461387197293,-1.41572490931873,0.0660294892804048,0.30088280460962,-0.0039124126432772,9.96521753076575,0.432824096537578,0.0998913589369631,SQUAT_DOWN
0.16,-0.0575301137203473,0.572338999412165,-0.158760124943755,9.4687825352127,-1.62810765230727,-1.48391618280705,0.0880989892435333,0.639556254541411,0.151482313977372,9.43780020380679,1.84568341676076,-1.20427233855837,0.0818642590067562,0.315324195891722,0.003197492522434,9.9080203337911,0.470819018384002,0.156713155555697,SQUAT_DOWN
0.17,-0.0222669316822105,0.601806183445068,-0.174785436972446,9.53786866340506,-1.51285460221032,-1.71364467800054,0.076884015550795,0.633527444433348,0.156691996072238,9.48271775142769,1.67662353732277,-1.12949540745044,0.0829604055970658,0.327961665587061,0.0029318260979773,9.93340865274712,0.439472343420914,0.244081975136624,SQUAT_DOWN
0.18,0.0424343070009027,0.636473123171412,-0.194326299146541,9.52966795428667,-1.4209345074927,-1.79017132661438,0.0707292097010925,0.649754207486709,0.15742460691363,9.62050539417111,1.50746180294287,-0.958075936589469,0.0713175054796319,0.347198433651911,-0.0029294744845115,9.85081560572515,0.389792258644303,0.308381303259483,SQUAT_DOWN
0.19,0.0897158590021288,0.630288530041045,-0.210613374825002,9.40230097803729,-1.32049098984623,-1.73684762240799,0.0983652408382311,0.679718284670805,0.159419121225505,9.57497445161703,1.47614808508553,-0.855220868618249,0.0670046837802984,0.37655369337768,-0.0125814689354883,9.85788291059196,0.368377150458594,0.348816861657714,SQUAT_DOWN
0.2,0.0949120943654705,0.618427195450704,-0.221110269711787,9.36770770451744,-1.28899805465676,-1.79859118568999,0.182312830681616,0.728238343053363,0.174582123080373,9.51253807801032,1.37463511549911,-0.678827445530372,0.0724355236913109,0.402477743895653,-0.0245465437441689,9.76781333366337,0.387795869546772,0.372819420069919,SQUAT_DOWN
0.21,0.0534975265653181,0.640588599180141,-0.229175622572456,9.21801198699188,-1.17528594382772,-1.57261708515996,0.300926074616644,0.796643099602926,0.203739255785077,9.64161574861749,1.13870279305109,-0.129503840293373,0.082062905473138,0.434215509229656,-0.0330719037316384,9.68007035147332,0.370336017967551,0.461498693648665,SQUAT_DOWN
0.22,-0.0225503488441627,0.695934291728104,-0.243555813421925,9.19120934500639,-1.15900862974399,-1.35972469754253,0.361409054098808,0.919048131630533,0.234163791032679,9.8248691157366,1.04708536002765,0.269088004444701,0.0732792348732507,0.453378251075503,-0.0425916386939433,9.59966607894728,0.450173511624488,0.495669972250809,SQUAT_DOWN
0.23,-0.104914611010703,0.770935594569248,-0.248357671903862,9.22801041878968,-1.01134652414837,-1.03678337378351,0.439026519187072,1.03346604718061,0.241930072572891,9.87574483110849,1.15990630640272,0.361670674269153,0.063214348111069,0.48198376481506,-0.0501240765218376,9.50650032988242,0.463700501706775,0.60539975953582,SQUAT_DOWN
0.24,-0.150568556942143,0.890884707957809,-0.265128454794064,9.36223968713524,-0.929930451749898,-0.627365068302336,0.489459404999111,1.0806906642435,0.237299255071163,9.75621012767969,1.45106851968431,0.0264621241402738,0.0366217613664586,0.504744679761375,-0.0457408635061242,9.29763287743975,0.444356085400996,0.643048594267516,SQUAT_DOWN
0.25,-0.193198484998899,1.00169563004485,-0.275549483216069,9.5602676662399,-1.0093591038774,-0.183442852164734,0.491522662561263,1.05368283951635,0.212687542617667,9.52051533300687,1.76335398940581,-0.494032921290412,0.0145047222366538,0.537380629218418,-0.0432476866259039,9.26613044759075,0.401497225953978,0.426201929433446,SQUAT_DOWN
0.26,-0.243799162836407,1.09100288195905,-0.25769620178248,9.95752897684729,-0.915129870105048,0.355092280524982,0.457221324251524,0.976319537941676,0.184114553531932,9.58668457103561,1.62337308427416,-0.682522317299353,0.0115294211264173,0.593107388859325,-0.0318241016082323,9.36419509619906,0.336284973915176,0.483004151707051,SQUAT_DOWN
0.27,-0.322065041767851,1.19692893954022,-0.249768282375511,10.3304075968119,-0.656033122084493,0.851745730756526,0.355768338396076,0.991983256099345,0.198049224881832,9.81810350104902,1.57760175876467,-0.582600694515986,0.0131675926674955,0.640229667845264,-0.0198034770466471,9.51143131183502,0.253096737593331,0.620551012669143,SQUAT_DOWN
0.28,-0.397913753147933,1.26815296803722,-0.269153907145377,10.2938185152841,-0.404981384871773,0.999888826791895,0.268139431095581,1.0242522844,0.220494829208885,9.7842999409427,1.73735682592924,-0.756362525095223,0.0182571696830832,0.684535088500711,-0.0093789524535313,9.64766478193307,0.227589078638139,0.799607464180425,SQUAT_DOWN
0.29,-0.413391075583568,1.28586252123436,-0.274726890528035,10.2866759066877,-0.315480639658327,1.08284917528845,0.258780149650646,1.02143451871035,0.209336571183326,9.72698529390131,1.7909873312153,-0.778753088682451,0.0464588701301131,0.710246763618692,-0.0017960756442044,9.74271502860722,0.197384303613656,0.810510377799858,SQUAT_DOWN
0.3,-0.423012860708929,1.29800399602682,-0.291398994334967,10.033772002178,-0.637182077694617,1.02624732810179,0.258879068023098,1.01245237017747,0.187915006184339,9.81687949432721,1.70209969272686,-1.19350665888655,0.0932169823793787,0.733207503822262,-0.0017298334282646,9.70698241907804,0.171613018381271,0.712676889076622,SQUAT_DOWN
0.31,-0.448535572452719,1.28386711541336,-0.303854880522317,9.68973546053588,-0.904486645286739,0.907820606716215,0.26775611618024,0.989109142854717,0.177680117642803,9.69945932657088,1.79070551456249,-1.49529215493005,0.145500805296852,0.736290670621844,0.0069593498732594,9.60414555065511,0.242137946790546,0.672136669037364,SQUAT_DOWN
0.32,-0.400442178184256,1.31549198415279,-0.314289641741439,9.44051475405444,-1.06075665647992,0.887080559455127,0.266678983059855,0.962240976400538,0.197318653035056,9.54045242427372,1.68891678348209,-1.46035482352488,0.190963739971926,0.765748846418182,0.0221125163201786,9.46025458646107,0.459762301177667,0.642701583690195,SQUAT_DOWN
0.33,-0.300851454253788,1.32249885208264,-0.324667772685233,9.2456293114159,-1.42801474918037,0.728903619224706,0.289613439207144,0.992048548526322,0.239471493627082,9.74260518105459,1.77467525764072,-1.21674054399719,0.228946714254613,0.800845493126866,0.0527829842156462,9.30407426471882,0.67005132206708,0.410849128153654,SQUAT_DOWN
0.34,-0.227358436596809,1.38144915113433,-0.346615669325458,9.33245531367866,-1.72041418836151,0.878180338554543,0.365166942459285,1.03540415658531,0.275480758021796,9.87205397186666,1.9863510628997,-0.500532117635244,0.215781042302721,0.834681594079962,0.0875255973850598,9.19404940144804,0.880299549712979,0.532629125958971,SQUAT_DOWN
0.35,-0.152911101749109,1.45366852901531,-0.368909513726302,9.77628659740289,-1.86981923906489,0.815460276217425,0.534366556480943,1.01003820604371,0.273697643878395,9.57694555059049,2.15820800177137,-0.0162456741790951,0.186930002911181,0.869582240754678,0.124646493160002,9.01833499360069,1.06041829945251,0.541279749055674,SQUAT_DOWN
0.36,0.0866716524773142,1.4668063950864,-0.382712360625133,10.129207410918,-1.84080638193142,0.426123702320553,0.611508773455639,1.03367846472105,0.25162338423512,9.71407419351787,1.89936288786578,0.581550993092084,0.16397945346937,0.907348547149935,0.163854424723124,8.80543232907497,1.17894795172792,0.673830627921393,SQUAT_DOWN
0.37,0.226206465054467,1.43843838390586,-0.389334919570486,10.2034879382383,-2.16505292151061,0.471926949540453,0.651078511730644,1.15014272076703,0.226533260956885,9.7689716827376,1.69812781511758,0.87987313874252,0.139064821281746,0.923208588052482,0.193682217972123,8.61055118537359,1.21378337860978,0.777501341957388,SQUAT_DOWN
0.38,0.234775191666001,1.36812937845646,-0.389416106139067,10.1446479208671,-2.33492755439478,0.346602443154021,0.648941063460039,1.27139105395625,0.203611221067505,9.657842370324,1.75634755521333,1.19722078118601,0.0866110378850405,0.921228667267733,0.215115164948484,8.52652479924609,1.17724154830879,0.969718326495136,SQUAT_DOWN
0.39,0.386224622602513,1.27610479071463,-0.387045052232747,9.78734909111965,-2.19734439404077,0.13254023456503,0.605359530410099,1.31872422909184,0.17492504976795,9.5873735280098,2.11783334020454,1.56069492384441,-0.001900918438096,0.912682465750843,0.2174011218694,8.55912320107032,1.12845829170044,1.08029122019538,SQUAT_DOWN
0.4,0.587723907255611,1.19047037331572,-0.388847682247801,9.62806911195132,-1.87582943168299,0.143697005117484,0.559478509369848,1.29392289757688,0.147730579858857,9.35405365622792,2.22511200509893,1.70309258320239,-0.0679163263773047,0.933657711282292,0.195053418261633,8.64516232650368,0.945538215856693,0.950290067606215,SQUAT_DOWN
0.41,0.716075336175599,1.19195058036503,-0.381782303595299,9.89617293192528,-1.20254667975488,0.926753901514078,0.556530449342813,1.30864237575632,0.142971807900701,9.30563061109587,1.79097668677181,1.60101925447885,-0.127423476829604,0.956294225539698,0.145316266563052,8.67133259756691,0.671146252571638,0.932876204505791,SQUAT_DOWN
0.42,0.783189987432548,1.21275091005643,-0.401321896157918,9.90637390331479,-0.456542896079755,1.70314947530845,0.577700210181233,1.28744745726017,0.121196276699467,9.57392015177847,1.57269764890383,1.51236283475779,-0.173143637786838,0.997731647379487,0.0716391172231799,8.64889922764037,0.374210019033519,0.877467884758387,SQUAT_DOWN
0.43,0.829015788230202,1.24682277334537,-0.438219588345371,9.97498517680293,-0.612059703310296,1.59935091294908,0.571842507606216,1.37134284830989,0.105786635914848,9.75592711675788,1.62559378099226,1.36289927722045,-0.176744084161794,1.05277254696742,-0.0042590732561793,8.50426922747584,0.125930562295432,0.738237297215076,SQUAT_DOWN
0.44,0.777223589126417,1.32668052841659,-0.468622306696686,9.92043404214802,-0.835311366415279,1.93004680125198,0.547208110121877,1.39128296807441,0.109223653900081,9.40568654660032,2.14206814635973,1.54234073714926,-0.162133128092497,1.09351860012904,-0.0786369867946561,8.23104580314292,0.0716467897191255,0.824569278991358,SQUAT_DOWN
0.45,0.695737561320731,1.37011012937363,-0.464481147647722,9.66259842651978,-0.978575061063081,2.56974170339052,0.421523095793704,1.40712955144157,0.0905257869085221,8.97027209324749,2.66910114069144,2.2708402450988,-0.142638213783036,1.10581548915937,-0.139497876300482,7.90309629785228,0.0531629397592137,0.9743197983342,SQUAT_DOWN
0.46,0.579212969361467,1.42187688376147,-0.440324819265226,9.47830786823397,-0.866999822219845,2.1373707687769,0.234924161359777,1.37614997531688,0.0374640686859107,8.50079504277476,3.56135031209981,2.27481004317754,-0.103218121714208,1.10446860012761,-0.175221078061656,7.68756780929757,0.121617754446374,0.582909302908831,SQUAT_DOWN
0.47,0.479311802971657,1.40186458164617,-0.407697254707583,9.06986327745832,-0.884015441934225,1.98584765129294,-0.0078672178446117,1.3329827872847,-0.0172417531017292,8.33579431468814,3.66376368748411,3.13541446588041,-0.0391528068229256,1.11982006102623,-0.185486369989412,7.42912105097305,0.272064067431507,0.927505432470296,SQUAT_DOWN
0.48,0.572026489311648,1.36533054851242,-0.327862774881243,8.9630685200826,-0.645163663290461,2.23329431254538,-0.219361069026467,1.27061318768261,-0.0975898290045212,8.64323311249019,3.798351183514,3.19702598062389,-0.017954679962088,1.13187543759714,-0.166557522147199,7.18625082990689,0.367014131704433,1.41217152031411,SQUAT_DOWN
0.49,0.665823075183799,1.3254492460853,-0.305638758465737,8.84393565441553,-0.611493186452233,2.29670734407697,-0.50678511576929,1.28846716980807,-0.126986275252581,8.68107233779999,3.67338000139114,3.52673153116998,-0.0071076679542038,1.10666429561087,-0.137203441078876,7.09114644667024,0.292012946404813,1.46376456656366,SQUAT_DOWN
0.5,0.721936620756771,1.38581433878551,-0.349386615414646,8.77096654909143,-0.549931643201525,2.09525229115127,-0.903875862576057,1.32902175679888,-0.135457388620378,8.62798415963673,2.65224998017287,3.51071709736162,-0.0024539839617957,1.05742587671711,-0.0963024422223276,7.19058677533417,0.0629389961523125,1.43988774355389,SQUAT_DOWN
0.51,0.775921130171148,1.45777842642559,-0.38036640236088,8.89609281217887,0.108836996990933,2.37937937360921,-1.15823268247747,1.3483759145562,-0.0359735568207143,9.39524615474859,1.28926651149876,2.95701220117725,0.0039090322380179,1.0164838150299,-0.0642977060781543,7.28848112423859,-0.12996594632741,1.78650606432586,SQUAT_DOWN
0.52,0.714727611532579,1.52867735211737,-0.398056898074372,8.96434255549136,1.71118045635524,2.26451827454184,-1.28012420873634,1.39485883853245,0.0847155257824956,9.63348082851995,-0.30474791270571,2.26626507775258,-0.0081678511980932,0.994912854685384,-0.0416392060862214,7.41387810766819,-0.363533857492688,1.73805572753256,SQUAT_DOWN
0.53,0.504500958088143,1.51583305325977,-0.358402009218481,9.06189673849086,3.31672870743712,2.79437677484961,-1.17463693235823,1.39646065961658,0.156054795490062,9.42217561330116,-2.2732779299378,0.994647622771048,-0.0007508866162497,1.01364335187225,-0.0388445804661062,7.76536950244324,-0.406979975379168,1.83346201646366,SQUAT_DOWN
0.54,0.223374501728677,1.50709795885495,-0.23304764919296,9.06368649136952,4.10780735814192,2.86896225392059,-0.892022650188929,1.47441730816869,0.180379276656044,8.69225582231359,-3.0529347821094,0.9084921569421,0.0409622487700937,1.02843646831322,-0.0583532304582492,8.23031667827422,-0.133086729157608,2.0128438427454,SQUAT_DOWN
0.55,-0.076902315750857,1.37554924078057,-0.144366543996742,8.81855450913312,3.87579796346865,3.07451149822336,-0.504558451696692,1.47477991423093,0.119509262916083,8.17853088706131,-3.29312703360897,2.15070114069672,0.103838912538074,1.03044421326847,-0.0887827916321008,8.4934989149111,0.587945155941141,1.94596108981291,SQUAT_DOWN
0.56,-0.212204142123084,1.3519435752711,-0.094172045787857,8.95351179328114,3.05250184564715,3.39002309442787,-0.120577508979549,1.57246357814502,0.0520144743016797,8.8243679981857,-3.75141915885721,3.24393060089569,0.103838912538074,1.03044421326847,-0.0887827916321008,8.4934989149111,0.587945155941141,1.94596108981291,SQUAT_DOWN
0.57,-0.235711132024269,1.36388866097873,-0.0853853823086018,8.75360241052889,0.771387653179236,3.32279703931225,0.389353732512672,1.70488986281788,-0.0280561400798087,9.33542633033322,-3.30338841692377,4.25051767797069,0.12747281366886,1.02430048170625,-0.0907393903061996,8.41039417070993,0.821228479674828,1.95593364987192,SQUAT_DOWN
0.58,-0.0982940907318601,1.39462546091223,-0.102148282435433,8.56877071031142,-1.21354085189711,3.64904962061934,0.594482973229787,1.49971066942592,-0.183129204279837,9.03114715106836,-0.442598481044098,3.17765725431122,0.163085772030104,0.986401958756043,-0.0869592502781528,8.3421215008927,0.850333825068423,2.3618126586998,SQUAT_DOWN
0.59,0.210735877542861,1.47361229230605,-0.107578036692709,8.68232461234197,-2.49838921439625,3.66734264348058,0.592364987994806,1.3096334865277,-0.302507739469386,8.63160530437968,1.62023299673239,2.82071971278416,0.185719284801992,0.911822806258745,-0.066720122633723,8.35551745580626,1.07322107329803,2.48242778950954,SQUAT_DOWN
0.6,0.482612583692112,1.52187132375911,-0.114254761816066,8.44181021771413,-2.19349290070242,3.66662943092198,0.380295018440022,1.33950220812917,-0.324917774180889,8.64315946106039,2.17726563098745,3.66131406244983,0.196493906049996,0.843038803210852,-0.0196270747500216,8.38899417444333,1.35057784000972,2.06445377649078,SQUAT_DOWN
0.61,0.721919586912416,1.48891806730472,-0.122016330476892,8.29737650101635,-0.726727478746691,4.13469353940275,0.0798986864436125,1.41510943923638,-0.296689543932747,8.70137122121745,2.83859110414109,4.64353567454586,0.16860893095024,0.813104596143563,0.0300151549494073,8.31014943378757,1.41780684093947,1.68598947497074,SQUAT_DOWN
0.62,0.792556487118222,1.45322023018298,-0.135062361222358,8.37999853013923,0.357067804823536,3.85895242212754,-0.149478587051903,1.41664783780965,-0.261796257939979,8.65128197081488,3.10056142210716,4.69072819692997,0.102491332674706,0.796272183453416,0.0578795709640217,8.35367264012566,1.18616008346968,1.88593627649972,SQUAT_DOWN
0.63,0.802464058646712,1.39290549657999,-0.11822104530406,8.20279854311633,0.859202839531887,3.83461667687379,-0.311020605001039,1.42428568971574,-0.233583075710158,8.37930855036806,2.60715321791887,4.24597368023875,0.0789185666513178,0.813306643432051,0.0561529681549523,8.30884401078672,0.658753860464834,2.29569295173786,SQUAT_DOWN
0.64,0.665924488309623,1.27660332316269,-0.0500540699304363,8.39515440500396,1.02436194921014,4.15024617711199,-0.450364428844156,1.32079972492368,-0.251216503794113,7.91223876239349,1.98094730985101,4.46012601624266,0.106820434513307,0.802761929726821,0.043790015924361,8.2605534436122,0.294627607251514,2.70696591747531,SQUAT_DOWN
0.65,0.538572765610095,1.33347827316793,-0.0140806668295852,8.74057447317148,1.19863736642986,4.28665520204991,-0.382944811344315,1.28140183819652,-0.240592064480151,7.61984932109196,1.18305400004659,4.71860149623917,0.107139362667654,0.780862962541746,0.0235854396831347,8.23393597351985,0.0519170557255117,2.77080270592334,SQUAT_DOWN
0.66,0.502321931945141,1.38260983117301,0.0163785002000602,8.44997810201827,1.51805880655714,4.23476594549266,-0.316012288725479,1.2332883957076,-0.274574852761719,7.72956083690654,0.835209745475413,5.22416954280118,0.121892112854015,0.798356912696545,0.0119578166541165,8.37926312429157,-0.155872737867782,2.807899979525,SQUAT_DOWN
0.67,0.459951618571332,1.42061988708545,0.0422040330441169,8.31058132488839,2.10779215477667,4.16395910902099,-0.431389417378295,1.29444411446978,-0.304328577029912,7.85108016111326,0.63798541698511,4.6963510916796,0.156142416907648,0.82929439481474,-0.009748676553587,8.72041756638248,-0.211944669369206,3.18535614000618,SQUAT_DOWN
0.68,0.415735562621465,1.48718290835498,0.0522221190815803,8.35907169466277,2.45807549830618,4.34427189384142,-0.624080089999363,1.42706273690978,-0.281795688356043,8.29442020947362,0.0733165285298254,4.67455611175509,0.189872857561875,0.856340521194255,-0.035483269501692,8.93356000070047,-0.0323566838624047,2.99445529387407,SQUAT_DOWN
0.69,0.372298505297689,1.44526649846771,0.0696033080792028,7.79535998978118,2.56328913233289,4.55409067442379,-0.759871524224177,1.51700639973925,-0.225375561190836,8.4542770557869,-0.338177870724992,4.25373360861453,0.255880368082407,0.831000850738358,-0.0444169388623922,8.85711972131765,0.287196094357188,2.03246936550114,SQUAT_DOWN
0.7,0.255500316056105,1.28847797672346,0.0778830657461032,7.29083302758597,3.08492849629357,4.69179693154281,-0.73399519932838,1.51551388847714,-0.136495024264221,8.36421766240917,-0.811371784404168,4.47268078264832,0.264430290077523,0.851071306134224,-0.0727514698015815,8.67700759793098,0.780546949641411,2.40676282049846,SQUAT_DOWN
0.71,0.222815773909053,1.21000792369363,0.0578594340281168,7.40686915636367,2.51915829676329,4.98445916455263,-0.693334260151846,1.5413243444738,-0.0729263416883605,8.27706147102335,-0.834597981773293,4.74933570839264,0.173294554624814,0.852116518201021,-0.0981912724835254,8.59723926012515,0.914776326637874,2.95321958802919,SQUAT_DOWN
0.72,0.20876565499985,1.21372610589371,0.0056029540059955,7.63717729199873,1.51029755886355,5.19762833291189,-0.579798667138589,1.49551794441652,-0.0769693027317312,8.42341959151683,-0.875094566343998,4.63326693733149,0.0915912988538399,0.828957131241664,-0.107697659819808,8.59661302281083,0.854402828070874,3.16211620308912,SQUAT_DOWN
0.73,0.277390751981202,1.24411560285618,-0.0398931452494469,7.81442005557865,1.30126179077711,5.33181546194014,-0.530400210577086,1.53052793990284,-0.0701839967246685,8.97062599988805,-0.849653655876398,4.46364584821569,0.0585218327400513,0.7526868397825,-0.124682221400045,8.46244294271518,0.862551448893853,3.41438208350162,SQUAT_DOWN
0.74,0.330162876051914,1.25446518917059,-0.101851840648447,7.67669542058164,1.99198623674578,5.52652690049526,-0.462305089094186,1.52783771681172,-0.0822223452743327,8.7613369787079,-0.64223856901194,5.15186743125468,0.0751966404265605,0.68977308761229,-0.138545764589217,8.40225206356131,1.0981594486753,3.57603974436298,SQUAT_DOWN
0.75,0.329282986544805,1.26681898188714,-0.133887210349306,7.60551321916512,2.11441374896028,5.64933678951121,-0.295004048144449,1.429098033716,-0.114585596357123,8.00471911981308,-0.384958449125953,5.27558800204684,0.114373441668189,0.643182290394894,-0.147918936219099,8.35263422758131,1.43915083154342,3.77984036091722,SQUAT_DOWN
0.76,0.291567595597983,1.26245272754462,-0.148786710545466,7.15413302599239,1.52729266135405,5.71679709358931,-0.10924398725859,1.35929306138008,-0.128094941699286,7.37889633837968,-0.174951533355028,5.02122703026842,0.169589484239499,0.608555072046697,-0.146362596630798,8.48425415259323,1.69195266803109,3.98360551974159,SQUAT_DOWN
0.77,0.271057996645024,1.21504534699155,-0.127099388519429,6.90946450037359,2.00745407141209,5.73694461798986,-0.0720785969619159,1.38577977283143,-0.133663408060013,6.98464920194096,-0.324491555838191,5.82940955487866,0.185635310645671,0.59163382011392,-0.139996974200067,8.75642802582807,1.82014151265924,4.19232764712496,SQUAT_DOWN
0.78,0.19598748893307,1.18896183789148,-0.0871477567457134,6.79488068637771,1.66107457653114,6.1783242649493,-0.0989372400781608,1.3978751646295,-0.151586794701363,6.75018687871359,-0.0497208336205186,5.90929397659068,0.17766259671873,0.570458893220339,-0.113673393236871,8.95078243276855,1.68995626896815,4.28004199703355,SQUAT_DOWN
0.79,0.173682501501619,1.15043519022282,-0.0930823444987199,6.70540583533312,1.68265847495066,6.22356819037247,-0.171858070834932,1.44598558455167,-0.160407178615675,6.73001759072805,0.024520425634583,5.67672816204543,0.142850902277791,0.496089734607132,-0.0571151378776552,9.04884270655083,1.06113495270547,4.21195761354069,SQUAT_DOWN
0.8,0.208859587530587,1.16250169105119,-0.0866620158710669,6.82882261381864,2.38083654171135,6.23098081726529,-0.229699184614458,1.44394128333472,-0.146911965646958,6.51614063751935,-0.345227782598653,5.92648881636987,0.114994476256274,0.423616585139766,-0.0457075437538503,9.26772599905738,0.40182653318873,3.51024645737302,SQUAT_DOWN
0.81,0.198708704917447,1.16099616977806,-0.104023918642047,6.85002501923861,2.48998858870662,5.96418788865855,-0.267771191514768,1.41321008652637,-0.135848331701238,6.89473830316481,0.0684469993610475,6.18832681759106,0.127536909531128,0.444608076534719,-0.0528851577259144,9.11848369848209,0.0551127345512599,3.36100037905474,SQUAT_DOWN
0.82,0.217023571449427,1.14887999868043,-0.132083562716332,6.77643512938543,2.44481002037765,5.85868808680853,-0.277553677327803,1.42765699171334,-0.0888106634215574,7.2463629796519,0.333476456513278,6.42921829551962,0.100964223104919,0.464483607780522,-0.0967160702917961,8.68558099973145,-0.188552576342501,3.40779254884083,SQUAT_DOWN
0.83,0.193707242564746,1.149307833047,-0.146274141156226,6.95333850284804,2.38746657200248,6.26793343592797,-0.32141030217046,1.446597298081,-0.0389637654611535,7.39339177710196,0.560510029366686,6.91025764610273,0.0999554225583724,0.467869983751052,-0.137176637324082,8.41428971015839,-0.0933967290680689,3.76796188720726,SQUAT_DOWN
0.84,0.0689544491796883,1.09972400616028,-0.162679098089142,6.9035552974934,1.99708595458301,6.51144555154095,-0.315313190453531,1.41627742928313,-0.011117885292986,7.23503243924279,0.907583475896782,6.87733726353542,0.136905594789484,0.427435122079417,-0.168732201155874,8.34970214713813,0.35506177628528,3.63418330336517,SQUAT_DOWN
0.85,0.0135005119180898,1.12103869112485,-0.195410393538046,7.06585719924862,1.6484607980753,6.37170112647025,-0.290238100523638,1.35290368244052,-0.0022287919917988,6.92227850062968,0.74279700081424,6.69986304000372,0.0931525149309975,0.304074929774974,-0.187725625810131,8.52507105729945,0.966053774431622,3.48992274754986,SQUAT_DOWN
0.86,-0.0104705992292232,1.15058550065641,-0.206809366846818,7.13992462171699,1.15234527923872,6.29675263330701,-0.291367271228191,1.3352540398859,-0.0029975433674001,6.62182006057315,0.476703982338803,6.73401085307825,0.0430257010072499,0.282745294234315,-0.181383284679686,8.83811839107751,1.57351435233462,3.88202389271462,SQUAT_DOWN
0.87,0.0413506063373203,1.1021103984673,-0.201355582092638,6.80220280825904,0.837071892708855,6.66601948302206,-0.286279644064244,1.34061672002626,-0.0085998343661769,6.22890663507777,-0.0100868368065277,6.93779095246028,0.0367430250705194,0.262935442361278,-0.140530384798635,8.97665103274104,1.80660595609204,4.07313254389121,SQUAT_DOWN
0.88,0.111248274908995,1.07322181008456,-0.189025684667229,6.6903898385609,1.09627844595831,6.35268185133694,-0.230810312551567,1.33175923388212,-0.0559924254663773,6.0137752284322,-0.383742152637141,6.77556633454553,0.0450756785463533,0.2255468333042,-0.0861866658129402,8.946025382095,1.73922143446233,4.17107655295705,SQUAT_DOWN
0.89,0.125470838464989,1.06232926663639,-0.175854404572378,6.88249935262027,1.51861543099861,6.53579954229564,-0.113880866028528,1.30426427756561,-0.0969147491520158,6.02973528613297,-0.447601804064097,7.23253357968439,0.0323394523032637,0.207195706215559,-0.0576085635288547,8.98693950764413,1.6764848657733,4.61834687138148,SQUAT_DOWN
0.9,0.0990819659170526,1.05537324835746,-0.16325158411041,7.17447809680383,1.61995840299944,6.59718232591192,-0.034639975816923,1.26051546114516,-0.111643016572934,6.18586962210339,-0.0746690313025635,7.46482648687373,0.0114224865193203,0.218920961720549,-0.0234091198820457,9.1979398524417,1.53082112322151,4.80043497104238,SQUAT_DOWN
0.91,0.118024156589014,1.0585328264014,-0.16024992789145,7.08243146958808,1.45890090279045,6.5858154665584,0.0067100284683949,1.23971380246008,-0.104886977028069,6.14333439319058,-0.234725218902626,7.47901322489929,0.0609885045921885,0.241127613516462,0.0066105483085669,9.3346198357648,1.16598107238324,5.14666276811522,SQUAT_DOWN
0.92,0.162318142974012,1.0569714765847,-0.178269274516562,7.11375738332154,1.35134281278516,6.77558817627016,0.0016625344214376,1.23488721999747,-0.0817721925795034,6.05283911522232,-0.0094928634893191,7.70167689969562,0.170415437773195,0.209536596716847,0.0355969948364806,9.06179930415447,0.572308896693961,5.42472654345783,SQUAT_DOWN
0.93,0.148729610023438,1.02919701557744,-0.186132271362186,6.68559645105247,1.54684665959432,6.90385720527559,-0.0049308992976368,1.19599308537352,-0.051968743586431,6.19828544795091,0.396676960371171,7.81879361536303,0.183929761705464,0.157156279743366,0.0256721552660206,8.94163477078417,0.186289040705423,5.35025850345027,SQUAT_DOWN
0.94,0.147725269829583,0.965852336542395,-0.183099999983254,6.67195057909267,2.07589591667671,6.65343508027521,-0.0655853997018697,1.17101280239482,-0.042003565154154,6.2372296475304,0.751061167623292,7.52377076997491,0.161270140538264,0.140444479430177,0.0127799457312145,8.98521824393507,0.0417753283846524,4.94194451444706,SQUAT_DOWN
0.95,0.127592427155215,0.997360715602399,-0.202165701116705,7.44638386989049,2.46426492109181,6.69840201796529,-0.0979136117463834,1.11387983884756,-0.0205572963634365,6.01936932639235,1.03093768663731,7.38846756203571,0.128981817167689,0.0257145246406704,-0.0154777358688899,8.92214855954599,0.0698324346217867,4.42206294873883,SQUAT_DOWN
0.96,0.0389649079078644,0.966005912349141,-0.186114167848348,7.35655894751827,1.70079961425962,6.86554867593718,-0.153404824701452,1.09801566430621,0.03496767668579,6.02909772646398,0.673598049244985,7.44529378219441,0.148467320066281,0.0460038831997368,-0.0466930960930926,9.14369057297954,0.385843430467832,4.80980888899669,SQUAT_DOWN
0.97,0.004021747682107,0.918523664186925,-0.175995034382328,7.01057669091169,1.80147094036625,7.07243709058735,-0.120118026680845,1.03109064227933,0.0836471237364065,5.97224264484543,0.239628539408711,7.71703242224669,0.188481274016026,0.019526222203072,-0.0559214370306966,9.21968521955029,0.627960932095698,4.61740552548198,SQUAT_DOWN
0.98,-0.025047845960117,0.92366110809615,-0.178410788736867,7.23288590414892,1.65246436867895,7.31410816280746,-0.0792074329535488,0.970484001939857,0.0884586510599059,5.9971079524821,0.334543427652326,7.70339057228607,0.221617090331,0.0249411154533824,-0.0281293512827963,9.59234441931493,0.979532904288266,4.99277792058354,SQUAT_DOWN
0.99,-0.0796228378760359,0.867195701221382,-0.136239153217756,7.16866760432087,1.12550954753299,7.42015236884686,0.0041938778529375,0.920934904623654,0.0635929458458784,6.0481969253084,0.691928937137714,7.83682704685647,0.223719252352926,0.0384860448568598,-0.0019853419909841,9.80351222806938,1.38449856146786,5.61874725297933,SQUAT_DOWN
1.0,-0.0623070127861273,0.819549319549421,-0.105379682785476,6.94523643876052,0.414872201759541,7.17113301702293,0.0826286078697316,0.834305390211712,0.0152037337064277,6.04249017610815,0.952881079713555,7.88835561504138,0.244087487643922,0.0577832882841788,0.0241983944841536,10.0646488230702,1.50419585656615,5.90167096527613,SQUAT_DOWN
1.01,0.0085659438436523,0.835692491751555,-0.105155086297106,7.29724915691412,0.453747494200201,7.41802871693081,0.119962306060981,0.790566162657014,-0.0272024264301905,6.08350172828779,1.56373269078932,7.81076806095925,0.263275227261502,0.0805719596487263,0.0446953975289501,10.3611571643798,1.44250092383593,6.07559969144542,SQUAT
1.02,0.0461887356360086,0.792530158966692,-0.0917905377500096,7.5562129165891,0.45613839782859,7.68718088583143,0.0899973416450965,0.773280904673886,-0.0586051962152852,6.31556485054292,1.70568382278203,8.13173755864126,0.276486771341946,0.103632907913481,0.0625936347864643,10.5083260403573,1.2794955428207,5.81767920562075,SQUAT
1.03,0.0660257042297576,0.798630006834417,-0.0975110819837053,7.76587885021976,0.849071075479253,7.43587778267897,0.0453320287853923,0.738096047005526,-0.0645095322643301,6.63801110531485,1.45692136439905,8.03496839579272,0.278645542657183,0.145951072740645,0.0731683816022735,10.3673890225496,1.12489797482943,5.95102070047663,SQUAT
1.04,0.0820518853639926,0.81303307064299,-0.0914493034437873,7.52035055559478,1.27538812659652,7.66140401935212,0.0409483251886317,0.722806110076971,-0.030553958489318,7.01046005971829,1.35032931616653,8.03150170429318,0.220280356709745,0.12307760325037,0.0704336698594624,10.1008758376459,0.910148819751808,5.50320179012775,SQUAT
1.05,0.0317226539043483,0.775897330901627,-0.0829544875333671,6.95296241939451,1.68687973803307,7.78761267633338,-0.0029091809247215,0.723756094477469,-0.0093163060599377,7.10753939862324,1.47610854737716,8.15099302062662,0.0929017358904827,0.0631085301129575,0.0425334116150807,9.70585656578025,0.791527153880834,5.43592060438262,SQUAT
1.06,-0.0245073206671737,0.724319833599946,-0.0763735091320936,6.47125118474189,1.91852175541151,7.73029726778317,-0.0248358743478165,0.701785242151913,0.030753054095114,7.2675697467126,1.24760818183514,8.16708698156222,0.0248436444548008,0.0443898470045734,0.0056476676062327,9.73689334765426,0.821907131234358,6.00093205267779,SQUAT
1.07,-0.065760300373012,0.674648042189031,-0.0722224344317685,6.28113667518496,2.22048683843601,8.00394033415747,-0.0552093946945655,0.691501348667284,0.0448971838429498,7.02312584998739,0.858190045035727,7.84043793686157,0.024591895587526,0.0087360682207743,-0.0123334168968162,9.83292702830564,1.03341123336646,5.65017285676068,SQUAT
1.08,-0.118605781818784,0.631126843929111,-0.0569013122511651,6.26355131355903,2.48208485484149,7.90443156010008,-0.0302014719420949,0.686357118236371,0.0513702157500432,6.37299732093078,0.752316988149617,7.91141079754815,0.0222967782165883,0.0312156375166929,-0.0174370457961296,9.80747396276646,1.3763715283887,5.39481645671158,SQUAT
1.09,-0.150141940846485,0.627023479675054,-0.0356995433821842,6.25294926536542,2.14885734092285,7.92899928614848,-0.0325608064083955,0.72010426544919,0.0666962145814472,6.23011357386939,0.565331829514475,7.97035686338548,0.019725242451105,0.044982151741746,-0.0334800269549712,9.67467998351104,1.72562794587132,5.65670775041995,SQUAT
1.1,-0.17474045783966,0.637997241384716,-0.0344192270335509,5.89642967415793,1.67272975202585,8.1762146693924,0.0285939922474971,0.728111847284868,0.083197071292997,5.77914538867509,0.297403719799869,8.47139689658406,0.0219342551466142,0.0400444804055441,-0.0432354352236843,9.4434385085234,1.88334206961688,5.62209896128172,SQUAT
1.11,-0.195723329746892,0.590530444894553,-0.0433564828113449,5.59016120538118,1.21376379525954,8.37517139899629,0.1630444343577,0.632983863742741,0.0566401097251951,5.5300138826357,0.25044985023626,8.97926204552525,0.04435227758583,0.0416375091401139,-0.0352905690429128,9.32918516299676,1.89678229231014,5.63460576326919,SQUAT
1.12,-0.161688029352717,0.556616561883041,-0.0567720868843165,5.26533608380707,0.738099566522466,8.21737876193049,0.236249699226353,0.538888790138686,0.0136473977315304,5.3698952530791,0.724612973718819,8.95933469188007,0.0517119999898684,0.0337944412664364,-0.0245198396913435,9.18813163671728,1.84312018644842,5.63464795618003,SQUAT
1.13,-0.116135149587166,0.490209809676089,-0.0655756468622528,5.22138745418876,1.00857123936256,8.14914915912275,0.2157078577861,0.482388814068896,-0.0134946507023949,5.39351277504978,1.21282004276217,8.70602440082122,0.0398358244063068,0.038215175220309,-0.0034418393269237,9.17024387737516,1.69304577842971,5.38476524643629,SQUAT
1.14,-0.0701395427828192,0.474329089009616,-0.0839868881863695,5.83335633528661,0.968767989183615,8.37264222950751,0.141315848845636,0.484280549038576,-0.0078278597630913,5.5030921641238,1.63697469000683,8.73195933091482,0.0248360157359547,0.0201930376730024,-0.0035677292528395,9.18175562757695,1.50333110531388,5.3850378954425,SQUAT
1.15,-0.0366572367260416,0.435012148515245,-0.0705798254737786,5.97679900357893,1.05214943115588,8.3811467283704,0.0530123383162705,0.462831628722155,0.0073086214438513,5.36536303239447,1.76705152034866,8.59138771534615,-0.000978300156623,0.0175694935889868,0.0008918349803922,9.13891034761276,1.46598290379698,5.49748224700049,SQUAT
1.16,0.0047289397724883,0.394214941494187,-0.0729741552694415,5.78567608561634,1.2477306665742,8.18341624400312,0.0019077979713533,0.428414289072014,0.0087624164668569,5.33500164504542,1.22929837696692,8.70015308293842,-0.0003149279126283,-0.0032338962264981,0.0149680634459789,9.19458882736752,1.35788234859163,5.42322999221048,SQUAT
1.17,-0.0208100799754883,0.370348476248,-0.0837081032545291,5.86506632880932,1.39246652533355,8.27363798101951,-0.034328639453798,0.413053939519039,-0.0032116044090578,5.50076226043539,0.845856980995122,8.53901638174783,0.0126541887427856,-0.0028564185297255,0.0232965406837821,9.29890516557494,1.32263144483084,5.47730421327598,SQUAT
1.18,-0.0329277691216288,0.354770414169884,-0.0819395618474312,5.89241193801609,1.2452063708853,8.32574866638118,0.0082363875224113,0.37759779806423,-0.0233890015949066,5.42152311920999,0.555530944796057,8.42816816193179,0.0373356521550659,0.0004531178706083,0.0153272352310216,9.31740756835936,1.36211480532607,5.66402905951811,SQUAT
1.19,-0.0228077816636532,0.306164406493923,-0.0815556498859814,5.74242439267857,0.855341442265149,8.25415944686853,0.0713440828077432,0.340185794922342,-0.0350399265210889,5.28350394584598,0.733148425847746,8.46559473874874,0.035458188063376,0.0027723376337995,0.0049838498437649,9.33888636538408,1.40541410711166,5.62711210026804,SQUAT
1.2,-0.0279361074836118,0.337699181834822,-0.0831467992543644,5.9536864115546,1.10505926731397,8.26610746823283,0.0403464256948746,0.353198933572228,-0.0261118131662995,5.33141924167922,1.01266152182596,8.27813452302859,0.0170634073013953,0.0083435149540716,0.0056832098679115,9.41335299091565,1.45537807546091,5.58086601597277,SQUAT
1.21,-0.0384833744689575,0.311652723846277,-0.0590892510421334,5.71988659893632,1.05205879787406,8.58549285267497,0.037063515475935,0.305536753687645,-0.0374661446183992,5.13873178900869,1.01650851061493,8.58544728247145,0.0340403698083625,0.0005938142974892,-0.0043298655167889,9.13168666454768,1.52174353144505,5.55609286264469,SQUAT
1.22,-0.068093768388458,0.255962996975547,-0.0507416230430072,5.82305764882375,1.05341579889698,8.41244886618065,0.0653172844829473,0.235344384255631,-0.0547963390553726,5.11990169477069,0.683029406419754,8.57780383313926,0.0337798247703256,0.0040230291423495,0.0044524483119969,9.2019779747646,1.6050191987268,5.69076144458127,SQUAT
1.23,-0.0597494613813446,0.226327734534163,-0.0291409587963645,5.94681162888143,1.14357286470312,8.4889042413718,0.0873540986494588,0.176441607425482,-0.04288003850499,5.53092286007957,0.433425968105758,8.53928813546962,0.0098262434185766,0.011179318539946,0.0087151855210135,9.20265770646741,1.57120660485737,5.73344979409591,SQUAT
1.24,-0.0574023859248367,0.206891434785032,-0.0187191577356657,5.85897469405326,0.759327009406751,8.54351278800974,0.107791243851994,0.169396373463742,-0.0222011417449516,5.84820455924109,0.485783791395002,8.65992471787972,0.0077525794846964,0.0267214604723599,0.0082574737987827,9.29820972994625,1.59213628373635,5.84857545460545,SQUAT
1.25,-0.0402058409895181,0.194569216088399,-0.02690199554076,5.96374302563988,0.723798766102572,8.39893045374588,0.0903299105822034,0.168817408107418,0.0027211863684793,5.65895138358483,0.516511770563228,8.82197870837695,0.0122967124844624,0.0270403136993112,-0.0006517453292713,9.29568231172001,1.54596915015738,5.81320184490086,SQUAT
1.26,-0.020306161927944,0.210096828196182,-0.0433655009965433,6.06057293397067,0.757999315020139,8.40182513082005,0.0810237443308764,0.184707796238884,0.027848249028286,5.76231950399313,0.511404608743709,8.94616865621689,-0.0030291202736126,0.0240964658928008,-0.0119934702082081,9.38558579920457,1.49772184256293,5.73124455501244,SQUAT
1.27,-0.0011869888980988,0.188660241560081,-0.0542396275558352,5.85819152323691,1.03080297038977,8.30360454041264,0.0597817529384316,0.193701535063813,0.0489682100060323,5.81728630385288,0.585457021914092,8.94686382607064,-0.0305148555760529,0.0289451493387446,-0.0237334883268916,9.3490710351111,1.55626758970402,5.58474758104583,SQUAT
1.28,-0.0034545316645058,0.178687934185681,-0.0619223203134459,5.88155219601235,1.31363142069499,8.30243557861402,0.0674146554470895,0.170939419448053,0.0558238641191792,5.50759016037751,0.625510702674148,8.71422537227516,-0.0369938055517009,0.0363723507570416,-0.0295283683841434,9.30663292196032,1.51994841912976,5.58734682570088,SQUAT
1.29,-0.0189581373711712,0.14073649919354,-0.0611253851969418,5.89373334675453,1.22016614737254,8.54400592755406,0.11426184368524,0.113264391646318,0.057086878645517,5.11383117697149,0.612762315158532,8.71840244847003,-0.0014179422630102,0.0372280731011519,-0.0336457960653952,9.38540068652192,1.46950275801565,5.44804105855232,SQUAT
1.3,-0.0619026783762341,0.125487489517382,-0.0524202160775313,5.7127150720698,0.885061623713846,8.69436066822657,0.106144597773325,0.0957376021443162,0.0589793511996522,5.33987535168217,0.475600343179665,8.69022384138278,-0.0161454829547271,0.022067605645351,-0.0279678588291964,9.22348416634667,1.45134034885107,5.48006402116371,SQUAT
1.31,-0.0740179276478964,0.0821577091744159,-0.027951488048118,5.21856760503011,0.588765789075144,8.7051555900261,0.107664645651643,0.0938473832007868,0.056272385181724,5.6050972032733,0.575297006501735,8.7500686451592,-0.034022134473005,0.0329368385458487,-0.0251543105165668,9.09993680182224,1.5485175111078,5.62036890454359,SQUAT
1.32,-0.0479135858801006,0.0686754602160188,-0.0099171016487213,5.22005955506187,0.684638349269499,8.52667340471484,0.102399969990959,0.0949300513001343,0.0618845026064147,5.31761293582261,0.935296684068202,8.61136388134869,-0.0323669120970583,0.0191729042521098,-0.0235550842061478,9.0205707796095,1.52239664832183,5.54705463828191,SQUAT
1.33,-0.0495108952575777,0.071640623726584,0.002028330884164,5.18280472356125,0.897475204710938,8.72978089363603,0.0823921752446259,0.102254842169804,0.0641212529920023,5.20423574330709,1.03817784865451,8.72252698726793,-0.0401847376726131,0.0068937925951272,-0.0237781193725435,8.89533323784305,1.46877790685008,5.38088586366693,SQUAT
1.34,-0.036645927202392,0.0385496385405456,0.0102375852312339,5.13005441447659,0.881957492308936,8.59727342485111,0.0684157659712681,0.0981823991965235,0.0551879652323695,5.08586188594996,1.09140143356956,8.75640399388189,-0.0455630827937416,0.0163518884583148,-0.0282379113439399,8.80825980862463,1.53171632779884,5.32310751541121,SQUAT
1.35,-0.0221219712172591,0.0404373193884273,0.0124122461545033,5.2906287295703,0.916717624491791,8.56924567120705,0.0717070646287419,0.0832103289793253,0.0481058867615646,4.86755298698907,0.999235204751467,8.84121069304505,-0.0320242830714782,0.0134626628880886,-0.0206945233140238,8.73350976648327,1.43752749756511,5.22142274622921,SQUAT
1.36,0.0105503322827367,0.0268050957693919,0.0086992276771479,5.40415559286606,0.998627341727835,8.65478324315932,0.0477657509410665,0.0903090935476002,0.0441925513489599,4.94352092663461,1.00502390577375,8.80716990441192,-0.0169242949275015,0.004964330176396,-0.0180819345032144,8.71782347232138,1.45624635373209,5.15324962261764,SQUAT
1.37,0.0151542280897959,0.0300721588747972,0.0046018711103053,5.34448084285878,1.0976546409951,8.56718103441848,0.0352621061744074,0.0842980034629366,0.0326372764344355,4.70594054566102,1.06675851948849,9.00330220571148,-0.0079122005143731,0.0079777419653724,-0.0172865564838056,8.60498891052208,1.49931051486005,5.12051428289787,SQUAT
1.38,0.0141423975179407,0.0219148279182941,0.0053839312373695,5.30588393546571,1.14131211263677,8.38454103262865,0.0414463899528705,0.0330384195572414,0.0252951682685251,4.41850362933702,1.17135590865679,8.92649012066874,6.46749176848e-05,0.0035224755732931,-0.013478907649293,8.6082075036415,1.51345889274642,5.08931244904216,SQUAT
1.39,0.0332670225283917,0.0270606677591247,0.0034720282466759,5.19542736982693,1.23327233754077,8.12648798558461,0.01825342249553,0.0302549663647796,0.0229156769267723,4.71684529218968,1.05368379771473,8.7765517349579,0.0010721052685251,0.0016100527520795,-0.0081346283058053,8.65764996457159,1.42751918396271,5.11605175232277,SQUAT
1.4,0.0433101905883548,0.0091683232411366,0.0006320230654384,5.04604945396967,1.31336630666417,7.99253423455274,0.0153847590967033,0.0089918961859778,0.016568274416611,4.97488906976417,1.00037123940376,8.60276966798647,-0.0051660980522188,0.0025173356824754,0.0002360305402785,8.67733081823711,1.30706110039233,5.20047741697483,SQUAT
1.41,0.0180363197809979,-0.0298226896182584,-0.0099406265514231,5.07008212640708,1.67476095227555,8.25138336264399,0.0101303262532187,0.0043325493606061,0.0097607616114625,5.06824784388829,0.904466489314593,8.55024459165978,-0.0177835849617375,-0.0004474039155304,0.0020395920492735,8.62323894900955,1.25309545467641,5.1724844893468,SQUAT
1.42,0.0041925379525624,-0.0677594874389018,-0.0141372110335819,5.07206708553738,1.82203396394643,8.26330198055415,0.0264841682164687,-0.0300518270151376,0.0010731226137114,4.89530586707125,1.0006482637859,8.36024453660144,-0.0288666249587359,-0.0062973808228041,-0.0032655853005039,8.6124251009749,1.2024585792718,5.07578130040878,SQUAT
1.43,-0.0094672572583463,-0.0632706936108363,-0.0164261043429632,5.29332664189347,1.62327683847871,8.23581414795143,0.0435608442414348,-0.0335241791339474,0.0041058652289069,5.07880688330676,0.995757321939747,8.29829883049633,-0.0263937059504932,0.0064510584134671,-0.0199061781152599,8.56623580998756,1.23147110666352,5.21420733854517,SQUAT
1.44,-0.0272635199469749,-0.0762548501432307,-0.014116894224371,5.28790787921011,1.45286053772397,8.37367700253009,0.0502258961915418,-0.0103277682788296,0.0052762590541946,5.11193442698926,1.06499178536203,8.32283623699589,-0.0169848129306326,0.0104117777301112,-0.0224306074466725,8.53092248902608,1.21983841790724,5.2623832177359,SQUAT
1.45,-0.0307088947232521,-0.0780089541408792,-0.0118739846077148,5.31388089512828,1.46835546857525,8.28249895673857,0.0596533046702986,-0.0186002190909822,0.0046006116942062,5.12859589400798,1.14191959962238,8.64609547216499,-0.0074463584850324,0.0124606844553576,-0.0340852786935808,8.45059367483018,1.26437570937639,5.10274748369726,SQUAT
1.46,-0.0147201469447274,-0.071016378989069,-0.0129292481390989,5.38289122792015,1.39978899809649,8.14353774622281,0.0724846817217798,-0.0283789306715217,-0.0002227221955142,5.20789216373199,1.1967066716318,8.77083237324803,0.00140237839251,0.0013210931082607,-0.039875255016483,8.3992387178711,1.3079663408624,5.03901850608169,SQUAT
1.47,-0.0126497135207436,-0.0671741654385006,-0.0192593788973044,5.26059644674199,1.26237542111396,8.10481955807904,0.0650889676024936,-0.0066533163033849,-0.0052313875523344,4.92731594435985,1.23613061477908,8.74940010492255,0.0066501627645833,0.0058865223715122,-0.0368181534641693,8.36767892264747,1.31209589337961,5.05470437178431,SQUAT
1.48,-0.0166776916304164,-0.0788270721940519,-0.0296376565349122,5.32659802509256,1.23373089518251,8.23148490180837,0.0361371197523444,-0.0122689832637964,-0.0079128818940464,4.92673439770817,1.14465725895739,8.78661840695557,-0.0013933716238387,0.0068082091921951,-0.027148386139259,8.40799578231954,1.31739572816615,5.09860979699667,SQUAT
1.49,-0.0175939672374364,-0.0713543291951373,-0.0357581958439496,5.37726260167203,1.24893552032314,8.3290887520199,0.0083811143445561,-0.0086715092317847,-0.0114985533085665,5.0108043266184,1.25076669019442,8.67575073388982,-0.022451085772042,0.0038054170556869,-0.0123567047757541,8.39795788987373,1.36152015195072,5.07826939997303,SQUAT
1.5,-0.0247989331725073,-0.078491375117592,-0.0298951458610446,5.21841950598618,1.26222188909358,8.41405451298163,0.0044088765778569,-0.0047203032242633,-0.0100506600256112,5.1117606053692,1.2636227655327,8.70826315705398,-0.0410839051032384,-0.0052181829418252,0.0025000141141993,8.42031956976968,1.368100287765,5.08448049646739,SQUAT
1.51,-0.0335138147117107,-0.0965027619682267,-0.0245145802953677,5.39098270332322,1.21806081572851,8.21317193670308,-0.0280350359511432,0.0100583643004162,-0.0164530568365678,5.09070382784348,1.30105981956483,8.52279590621315,-0.0522898351063355,-0.0091629762301666,0.0063185865881291,8.38071249494967,1.32825945239606,5.08328772831385,SQUAT
1.52,-0.0184499626461153,-0.0820535009456491,-0.0130559163961039,5.53487979373854,1.28759980225928,8.09618563917905,-0.0138179920292369,0.0036234958575934,-0.0184658749935048,4.78539308361768,1.43499285247683,8.57188913807074,-0.0600304041514155,-0.014782167843313,-0.0001069043857588,8.39527646638709,1.34135678224544,5.11015218309016,SQUAT
1.53,-0.0119974010238226,-0.0740750040388549,-0.0074672171252783,5.36912788756133,1.30694638398862,8.11291819490506,-0.0220940119080296,0.0038925907537627,-0.0221349146768654,4.74725578920426,1.29258759255988,8.44811315794909,-0.0717627457106731,-0.0244317559475673,-0.0079163905330977,8.40841996623668,1.34303085344636,5.05638538439682,SQUAT
1.54,-0.0236449923724763,-0.0644416040743455,-0.008344161051514,5.33069479356077,1.17526350998922,8.10109252160432,0.0203200645472177,-0.0251923768653441,-0.0304448259003546,4.56035870406591,1.19318425499793,8.42232392888594,-0.0791810210546201,-0.0205194746632254,-0.0147045826349908,8.41824228027069,1.25088894584532,5.03829980649922,SQUAT
1.55,-0.0129135862803471,-0.0594769985305405,-0.0208635827115411,5.32031903655511,1.15366642020812,8.21977665504918,0.0759715384614772,-0.0789053807191653,-0.045891616783034,4.51152902706957,1.19796694386622,8.50850605780033,-0.0841049952189391,-0.0280723210031137,-0.0170970581928436,8.39793983991589,1.20559549500383,5.0735173019446,SQUAT
1.56,0.0003338069822791,-0.0706403595936518,-0.0242969166173239,5.32944488698653,1.12938446414557,8.30070080506953,0.0713644972268086,-0.0902066443869393,-0.0576065068265236,4.85726272267578,1.19201927860638,8.52353779086357,-0.0771782881678488,-0.0372771557375568,-0.0124798744420646,8.40896966714456,1.15958791441276,5.09248763273215,SQUAT
1.57,0.0055573661768745,-0.1108373516981,-0.0148889305611204,5.16081143418912,1.16233012992866,8.44105402695274,0.027458873100934,-0.0639008809349223,-0.0612397428745923,4.88760879155453,1.21582400169791,8.7476077534468,-0.0751498106987782,-0.0411277084028074,-0.0018060814910707,8.40061438259524,1.15342607821667,5.0312296527081,SQUAT
1.58,-0.0092314264602304,-0.116259769826966,-0.0156497716117396,5.41822925212712,1.40652543677148,8.16969591177548,-0.0146327986759537,-0.0486461455897881,-0.0573242726549647,4.93663648661368,1.3414101503017,8.72577957502238,-0.0776141795204494,-0.0417859684884696,0.0043005456748805,8.4086219549426,1.09303342313867,5.08096564921519,SQUAT
1.59,-0.0089738166397042,-0.107305295398472,-0.0049619316352958,5.40998355001826,1.55263655805526,8.2504050691055,-0.0300138412810471,-0.0357908955562682,-0.0558266813610102,5.07703454302911,1.07465312142058,8.80176944394836,-0.0610160284847648,-0.0472953450871117,0.004897871853468,8.45021187355307,1.08022855714911,5.04112008189064,SQUAT
1.6,-0.0107533596138656,-0.0977230962317914,-0.0105721128386156,5.33573306523752,1.73909684966684,8.32591126318892,-0.0650538900464874,-0.0320763480746269,-0.0592057055332434,5.20386228771293,0.951762536818061,8.49838144790475,-0.0563135488344091,-0.0453043463394856,0.003636354662156,8.47576023425089,1.13063952775405,5.08189562015078,SQUAT
1.61,-0.0075379405660384,-0.0879396854479051,-0.0227417309539721,5.59353202206772,1.53605384845903,8.18390574086643,-0.0328537651315076,-0.0215340948424274,-0.0574577382147811,4.80540858979241,0.99296630960283,8.36301673106409,-0.0437059956787024,-0.0454286757394606,-0.0054801115117463,8.52844994478168,1.16801426100132,5.13879693394636,SQUAT
1.62,0.0065969070635357,-0.0896092766696342,-0.0379735708328453,5.56048124157582,1.37374433813763,8.09713523171658,0.0183968546751223,-0.0307129808144581,-0.0506526425931435,4.70560279334938,0.854390134182467,8.38042749555814,-0.0388888468911792,-0.0547316082961182,-0.0075686191610457,8.56176506240415,1.16590089665337,5.11945084534233,SQUAT
1.63,0.0224418137789457,-0.118118115700326,-0.0400805358681788,5.49644998159167,1.33013663297923,8.0600099595083,0.0334267436127946,-0.0266425412421948,-0.037987181696962,4.83491911273353,0.951761439939249,8.33471482415339,-0.0735063439603311,-0.0650292947449419,-0.0109218077577804,8.55355804663857,1.20467703511152,5.20629388981153,SQUAT
1.64,-0.0061020869320764,-0.143505539506601,-0.0281453724691043,5.41544385408903,1.5776653885138,8.12337472191767,0.0601672173719993,-0.0743857979466583,-0.0312841711891583,4.74004990549758,0.967149521980621,8.63428226102762,-0.109517666157658,-0.0837634002603192,-0.0079828350688632,8.6390354944681,1.15904636348945,5.24913093689292,SQUAT
1.65,-0.0627231938103705,-0.167641325103124,-0.0094213436326884,5.40820933276015,1.44591313696738,8.26199658197513,0.0623151269923361,-0.147576410531826,-0.0450235769290732,4.65161830972107,0.951920188988792,8.66437764012256,-0.153095003453279,-0.106478212760409,-0.0038357467702779,8.82643365167864,1.10121096603786,5.22210132856644,SQUAT
1.66,-0.066600328652689,-0.172015864690992,-0.0084429373194843,5.47913242361023,1.17093325712527,8.18414012355484,0.0372006271354389,-0.165420435004004,-0.0465406137696233,5.05991913290349,1.09709328860176,8.58887179797026,-0.189883505982444,-0.127472278672411,-0.0037583941552714,8.99116470503114,1.06858920321001,5.14549206105776,SQUAT
1.67,-0.0630646261836522,-0.199755725933933,-0.0080455163167603,5.43038334124328,0.977994836294403,8.32078819018024,0.0500916276217483,-0.157908977901207,-0.0480616263003622,5.01985821675935,1.17111071441777,8.60993603018896,-0.209767907066898,-0.147530894751916,-0.0107780644459395,9.06333769947007,1.07601230117284,5.37617700992716,SQUAT
1.68,-0.0387884250377371,-0.216826758359456,-0.0027040095686835,5.536081808999,1.13096251037307,8.54230512325034,0.0885580667396315,-0.171806226899648,-0.0373260000478912,4.70244914990981,1.16727308336171,8.75493895544312,-0.204793773475871,-0.143019591437375,-0.0157279387447341,9.2598451645642,1.16523567003992,5.4282888221879,SQUAT
1.69,-0.0323078381921007,-0.27547829821997,0.0051314663815808,5.68756249079822,1.27330849130708,8.71966438684284,0.141482424282758,-0.211388847125571,-0.0279381084692946,4.85857662524706,1.20718304735684,9.23033252413938,-0.190154815339778,-0.144245450518628,-0.0164272057813941,9.52936103890875,1.25995073643639,5.39561496917299,SQUAT
1.7,-0.0335850994521872,-0.280710675707514,0.0166142134170937,5.91391509964209,1.4428508555103,8.64285804618218,0.125884859887541,-0.256685154115908,-0.0455492274928597,5.18233290662624,1.32363675342441,9.28546388961519,-0.165040190883119,-0.136425923565618,-0.0109656864985726,9.73829651523813,1.31719592520753,5.54760486802174,SQUAT
1.71,-0.0293359695671069,-0.319068451988954,0.0056436697345017,5.802233740414,1.49453481442683,8.47486973139048,0.10833434517015,-0.302889307537196,-0.0686804657055253,4.9817887366319,1.15614614492808,9.09962034539341,-0.146971768015904,-0.133133044146853,-0.007278778969684,10.1280690403669,1.35912925300682,5.63568008056407,SQUAT
1.72,-0.0336704766010337,-0.350059986164749,0.0013581635129184,5.73698483841445,1.36904456409147,8.59627475157339,0.0885854961214522,-0.331020362168374,-0.0712094347766008,5.0304600359269,1.05980103638351,8.76958295441439,-0.142592061253224,-0.129048890000788,0.0020824596089239,10.4747435062776,1.3498662644024,5.75312390105507,SQUAT
1.73,-0.0310195146892431,-0.40291619754522,-0.0005396567397782,5.76620801088486,1.47204981164434,8.65677048880923,0.150431224434068,-0.410558826404245,-0.0442608634503805,4.92842663657074,0.914406317898552,8.91085325627417,-0.136553099537337,-0.135998666787068,0.0106995796490636,10.6639300567839,1.36267562145624,5.93940539080833,SQUAT
1.74,-0.0291300512218167,-0.445121764386928,-0.0015456180861617,5.90970886657708,1.7781925446391,8.6670452713922,0.177115048097147,-0.502793944407019,-0.0153788950910089,4.92352336022808,0.88870958645264,9.05875440631172,-0.119649706243939,-0.154275817305666,0.010491627337863,10.798150414813,1.37121195239508,5.71837259285828,SQUAT
1.75,-0.0381870010821023,-0.496477919934724,0.0094589657028495,6.0946363516732,1.93036906484151,8.58154677673472,0.1353817011547,-0.525825682366148,-0.0081215748005966,5.48229824913901,0.771415751271211,8.92453882396778,-0.119054269339083,-0.16727412370939,0.008339026173682,10.8239946586603,1.33868913035194,5.88290179758776,SQUAT
1.76,-0.0373830780857418,-0.546430699872007,0.0372317764753642,6.09236349548439,1.89372692973142,8.76532921308851,0.106632164999255,-0.526578583497514,-0.0124549507094392,5.60618055823127,0.593025411740948,9.02062071248219,-0.125559227027668,-0.176244564331338,0.007490417413129,10.8602313712254,1.27131227953697,5.84206781774475,SQUAT
1.77,-0.0566752924152928,-0.593903051573616,0.0753886872259752,6.02390576270783,1.61775290693772,8.70451360026921,0.143361295911522,-0.566274803788674,-0.0257336830258996,5.46586832553031,0.743136254786848,9.05800800632768,-0.104981498721195,-0.193280189647058,0.002751402833427,10.8510899875704,1.13961240500816,5.8609478776108,SQUAT
1.78,-0.0505456273289669,-0.653027515893964,0.096451686678838,6.041260253086,1.09141751778499,8.67120997934642,0.154402973099544,-0.61610364557194,-0.0374056844885041,5.46150549863013,1.24848669427933,9.21566701030741,-0.107396437148356,-0.202760780303828,-0.003735020136754,10.8727020846988,1.14454921403938,5.67574865248286,SQUAT
1.79,-0.02854420304308,-0.702381744168559,0.112591444259573,6.13643013839688,0.782770327412908,8.52123841165074,0.140816898565336,-0.634719577256347,-0.0368774254309315,5.4991068861882,1.79948752489415,9.1627693506699,-0.112717317060328,-0.218227027803559,-0.0063351322326965,10.9510471658066,1.19267557098207,5.74120386466497,SQUAT
1.8,0.02536919394667,-0.72234774967729,0.129039229745048,6.25452900760327,0.541530554599036,8.37081268260687,0.114477545665146,-0.693179937172927,-0.0351829432802475,5.61897942771032,2.19138414007838,9.21825789345778,-0.104958430991357,-0.221456023724776,-0.0125387462971764,10.9334356821178,1.21337899439673,5.91728298843251,SQUAT
1.81,0.0764802172638931,-0.764606714781228,0.150525149631948,6.24689505253421,0.614361543860316,8.36340316190534,-0.0131074538071151,-0.721190198385432,-0.0398740485721815,5.59113581423201,2.48616530009857,9.06629474463696,-0.108349475495603,-0.246416127159055,-0.0083066249648879,10.9283920363662,1.23411346879464,5.71310016684678,SQUAT
1.82,0.108318926177683,-0.797984535529834,0.15431114318377,6.52062367478822,1.03194477272666,8.37096810175408,-0.0822935700705811,-0.76118054461725,-0.03741408917145,5.60362023530483,2.24684764585336,9.08947087582003,-0.111624217378054,-0.266111887462143,-0.0098342253074351,10.9443038079009,1.35469063458292,5.72443034429008,SQUAT
1.83,0.118953406335045,-0.859083057686741,0.168558329105942,6.69060139553884,1.21830954198546,8.24415740022538,-0.122653739852114,-0.82466649872386,-0.0299388079139026,5.87359733923661,1.87460722081981,9.09797677151792,-0.112817173646326,-0.274555531661652,-0.0037151123390613,10.7650503864411,1.42934320773929,5.73603509281608,SQUAT
1.84,0.133982410281748,-0.900258420986314,0.179355237689095,6.73807134899145,1.3920340597694,8.15473830198805,-0.160502768911897,-0.901067299143689,-0.0398368766626983,6.04750737909246,1.49158638321587,8.86531116561284,-0.112805308695355,-0.301512993691973,0.0123875905534365,10.6435036876384,1.36257687860869,5.70667922126028,SQUAT_UP
1.85,0.136060425088071,-0.953720933094849,0.19013507114404,6.80354779484072,1.5642932074885,7.91558969310067,-0.147128075077667,-0.956072153061254,-0.0339012373686945,6.09894360546598,1.20164160017162,8.63797247739902,-0.1291202770974,-0.324902774026966,0.0175755584955858,10.5716128495361,1.21230410344278,5.58458045327695,SQUAT_UP
1.86,0.149615513461896,-0.989152174684441,0.199118746800749,7.10060650006658,1.55783647456703,7.8663560646691,-0.0895454402199898,-1.03688206575948,-0.0333159450482939,5.99624305599254,1.12429012974041,8.38656003011882,-0.124982668797188,-0.339062002584661,0.0143847196124113,10.5268502046174,1.2094537362339,5.47305786926924,SQUAT_UP
1.87,0.15393241256357,-1.01132707903405,0.206098413055938,7.28124677260393,1.63184009689868,7.6688958080646,-0.0374503115458553,-1.11669452863747,-0.0330235325890748,6.00759120295289,1.11902272919886,8.28194811692288,-0.107728697185883,-0.35749792515395,0.0121868160033723,10.5469998529838,1.15104096286592,5.50974192563093,SQUAT_UP
1.88,0.135639996532074,-1.04823864902788,0.231550770944284,7.30894269878499,1.628180693837,7.58736603983477,-0.0539108023587182,-1.15977639532009,-0.027904679116125,6.33852736352916,0.87806894200776,8.28082375542358,-0.0952095567928967,-0.375159493206838,0.0091532824417463,10.5591969425822,1.12166902900253,5.42322771002287,SQUAT_UP
1.89,0.119260432561455,-1.07906629937743,0.255689090429665,7.39892120640351,1.36084067422756,7.47866660401457,-0.0811150894952076,-1.18836677465177,-0.0216844236635254,6.60150825137203,1.02325720713899,8.08881427418682,-0.0971307213809745,-0.380535724127329,0.0066214446927182,10.6148913389527,1.04780639188063,5.20297338073301,SQUAT_UP
1.9,0.110066143178019,-1.09404068181526,0.275966994122317,7.45414716268756,1.19502102186904,7.22625628454682,-0.089387883642663,-1.22208110577289,-0.0168705436003846,6.68017552305231,0.999508736013362,7.92187423430474,-0.0938317142455292,-0.38797008673358,0.0146279160555749,10.479688247367,1.07915777192749,5.34291990517148,SQUAT_UP
1.91,0.118114278873354,-1.12199383813918,0.283324992054428,7.56011971831015,1.19205058593295,7.1180767976895,-0.101081659086197,-1.24330137374376,-0.0056471788022076,6.82100991349656,1.17623116214354,7.96269887776719,-0.087637151990221,-0.39341773398928,0.0226293647093337,10.3724763472267,1.11508255496251,5.22061703812054,SQUAT_UP
1.92,0.102356251000239,-1.161533346332,0.274427212141755,7.67981625892528,1.20147051163397,6.94900742457886,-0.093764287856945,-1.28113114949293,0.0070439577394174,6.84590316597902,1.37628585408807,7.85172484778304,-0.0767267211356891,-0.400893759445848,0.0331600093004359,10.2227892803979,1.18013795647678,5.12914329919147,SQUAT_UP
1.93,0.095959273329971,-1.19427234309886,0.276347263115016,7.84418057743122,1.24822296488727,6.78342541018985,-0.106726675134709,-1.30901905449549,0.0159395217927608,7.00760324377081,1.37440607327306,7.53502270635397,-0.0813040641992159,-0.411818645422452,0.0454861093966989,10.0470925976531,1.28879903769746,5.09561645119062,SQUAT_UP
1.94,0.0897409842682589,-1.22834575499123,0.278854686838543,7.90481211915691,1.16651365786205,6.61482393182672,-0.117465422254974,-1.32270271177722,0.021065691881576,7.01272469856393,1.31438693226209,7.47846176492525,-0.0907280486094514,-0.419211371150747,0.0549875803363261,9.91859145306964,1.24852714249004,4.93903056550357,SQUAT_UP
1.95,0.096970019655775,-1.23836874464237,0.285475191440735,7.97908712602744,1.18927977134558,6.44988470526301,-0.0944170595049452,-1.37716568962494,0.0209494648225478,7.05712545532256,1.27729077607474,7.23319641701013,-0.0818500671744261,-0.433410693095409,0.0647910924860468,9.8147449771611,1.24432493634045,4.72429561609508,SQUAT_UP
1.96,0.100110785218107,-1.2742397364218,0.296085023313439,7.96106655361274,1.06535745611569,6.40982882611771,-0.095391539732523,-1.42536384221213,0.0372381613771028,7.03321647636386,1.12970021080902,6.86018593611155,-0.0922361952108962,-0.446786314197498,0.0768309228945965,9.63376891781029,1.19580611536666,4.71499720633381,SQUAT_UP
1.97,0.0999661360790593,-1.31865108612679,0.319397982868818,8.01808508417662,0.991260153994739,6.49473826109982,-0.142601470415979,-1.43607025204234,0.0444505969255467,7.24247736781236,0.901631554183051,6.60361108941814,-0.114506346619669,-0.459795868879151,0.0826845065462594,9.54117399397807,1.07935562774204,4.48694818923484,SQUAT_UP
1.98,0.105189141415303,-1.33262171297519,0.34859756822138,7.89889235157517,0.986214703777272,6.15251967996366,-0.113719593919568,-1.46715952886548,0.0475715462718952,7.33308187240972,0.717779678615456,6.58445037720787,-0.120329367303537,-0.467156886889698,0.0894526755689036,9.46277302058324,0.962422331920765,4.31648083112136,SQUAT_UP
1.99,0.0921565408955716,-1.31171953858044,0.366645915664658,7.90789420687209,0.940056316360836,6.09276376946274,-0.0852325374041667,-1.49358987710787,0.0489495447873952,7.34264739116553,0.773046414984952,6.47814680763219,-0.117666147881922,-0.473011503850226,0.0890395274706644,9.3579887089297,0.956037871020098,4.2356490127461,SQUAT_UP
2.0,0.105381095677803,-1.30227859213351,0.379454182848229,7.95034209980542,0.786236237286148,5.70861145213187,-0.0604445751325201,-1.50250996891069,0.0506177137981659,7.52479799323351,0.960153353415984,6.22024102748293,-0.115544584590755,-0.474373197109656,0.0877651613164571,9.17270232875157,0.972249869497047,4.12644659925213,SQUAT_UP
2.01,0.112255144806379,-1.27955546995966,0.377821500557718,7.86205697222527,0.84344241931507,5.55196069258713,-0.0190437344514142,-1.53259120617925,0.0457192085635326,7.50320322747255,0.968791135365301,6.28044570603121,-0.101530980449838,-0.495517078605103,0.0896399383862265,9.09024141006532,0.893506994808489,4.05035299448053,SQUAT_UP
2.02,0.0969932148814516,-1.27861063976647,0.367244942761485,7.90191976162113,0.900232560113923,5.60685084824246,-0.0269932727188637,-1.52437599540989,0.0355537788145211,7.71952093559854,1.06788679670366,6.00420934038808,-0.0741133651509154,-0.50901549458475,0.0883900170630717,9.03576348768802,0.756619038737859,4.07914375341256,SQUAT_UP
2.03,0.0698758549963706,-1.27962095592776,0.358756832661249,8.00946226108511,0.820579117992558,5.44484401030947,-0.0366202651417454,-1.54410338413836,0.0300309056643474,7.67690536311433,1.20390692582582,5.96143997330524,-0.0551613165833839,-0.538345045968551,0.084204945826357,8.89067882115267,0.702400038047055,4.03006266049831,SQUAT_UP
2.04,0.0381341946439817,-1.30151281633799,0.346954025610674,8.12816760182732,0.849671215846255,5.32483903231333,0.0078635838567169,-1.61361326955257,0.0218035084248109,7.55669775719144,1.1788928650675,5.66098350322927,-0.0393798543872331,-0.555689446044361,0.0791259407149346,8.88393707583682,0.671658349469576,3.87588038698434,SQUAT_UP
2.05,0.0029688150089104,-1.33382121481395,0.343169094856282,8.15019525647261,0.952675773136983,5.17958046076455,0.0103111339651918,-1.64649120961313,0.0240247749841084,7.91051328615411,0.963372017314526,5.40648535873977,-0.0232711399804386,-0.561475973956817,0.0861645247063942,8.84228585703238,0.634041065029336,3.79390042671067,SQUAT_UP
2.06,0.0227360530848174,-1.32729790722855,0.341076140569279,8.38027963784814,0.832522960194193,4.78445748736184,-0.0054939091410953,-1.60789202040245,0.0363743698365674,8.08869443963774,0.930224375706286,5.30709020042711,-0.0041434194315118,-0.576482423042578,0.0918657479442682,8.76453054422749,0.582455114125036,3.62864953246287,SQUAT_UP
2.07,0.0335373009123787,-1.2928025355426,0.336562607454494,8.47812504090935,0.780294633303063,4.75163007525378,0.0128949487421021,-1.61803142131398,0.0495551177668998,8.12069755146984,0.865885992784527,5.13328143157208,0.0140088881839596,-0.576623886145937,0.1027144360173,8.67585864070808,0.707528869075606,3.50973505169493,SQUAT_UP
2.08,0.0351831156877927,-1.29477238841005,0.352515761223698,8.53726844767076,0.703945844494281,4.51919482828577,-0.0083297062184029,-1.63279528063759,0.0735735986011131,8.1331933315638,0.513497013427289,4.84215522567089,0.011508367995889,-0.578611596011406,0.119842311301097,8.58868541425648,0.787289047507909,3.48527556965611,SQUAT_UP
2.09,0.0579534060428782,-1.29559713926944,0.354318877596339,8.49649782863189,0.644694747009278,4.42039333955831,0.0170195322735801,-1.65905106343876,0.0770686013705702,8.28109394072699,0.124157587867034,5.15873846279693,0.0052275853078804,-0.581145519035196,0.146145608177215,8.63262558613651,0.865111552267513,3.22840760830293,SQUAT_UP
2.1,0.0761749617079972,-1.27537069046297,0.347685635505918,8.50498289996833,0.575580459598513,4.41353761254396,0.0110564880501495,-1.60591733190385,0.0874461548444162,8.32162517826293,0.458360291529603,4.48816994975448,0.0044037306285961,-0.584159802394858,0.165143051598861,8.66017807686495,0.866879850712177,3.07013517689079,SQUAT_UP
2.11,0.100156884106572,-1.29757416475242,0.345142283830181,8.43087212828124,0.473840338891751,4.45178816154724,0.0392244648018642,-1.5581417510264,0.0954795764085382,8.33238782967939,0.581041424860707,4.33111219287656,0.0078570979990529,-0.578695523447213,0.175201561721541,8.55503668492092,0.816706040387439,3.08402738245757,SQUAT_UP
2.12,0.0956678510628315,-1.33856217711596,0.34744815932471,8.40189062339422,0.319156772125906,4.21382077614159,0.10742177443597,-1.5701118503439,0.0930886136073677,8.2860536919648,0.709321363296476,4.53068909972368,0.0199533839685984,-0.576038897091221,0.180113046868435,8.39936111281584,0.663980085673335,3.14853627151349,SQUAT_UP
2.13,0.127812376852044,-1.34168539684359,0.33722129223404,8.42898425315965,0.106609507648999,4.15518818034806,0.135113833976231,-1.5893471650048,0.0733700224830185,8.30118547625242,0.847632230574494,4.19129365784406,0.0298899428217907,-0.593801821118616,0.167911443011267,8.22430226684008,0.417203400824964,3.18897853786541,SQUAT_UP
2.14,0.163431659002089,-1.36839893611263,0.347766523755737,8.40085716948909,0.0740227326323365,4.11374991285665,0.119386510002549,-1.53353232939958,0.100933118251065,8.45374352541472,0.855325032677713,3.98673904852587,0.0255558595832646,-0.614439692905948,0.141071561595781,8.27577621396529,0.302607006909298,2.83951444497634,SQUAT_UP
2.15,0.217654711314146,-1.37491671047346,0.367152667063773,8.47459766275886,0.268384090699684,3.72437018771866,0.096337686241487,-1.48885746703069,0.108834357712769,8.44165880678749,0.766867632137782,4.13859823754869,0.0322111809520381,-0.616712236377062,0.121275307945485,8.21242794687668,0.360745966779311,2.59592386349398,SQUAT_UP
2.16,0.247518310327107,-1.35804710627234,0.363744004944224,8.49134088838947,0.242234697832077,3.60942793612032,0.0783712905835963,-1.4799457194149,0.0883280177634371,8.61375835606827,0.902491364335435,3.81638271175546,0.050337876560366,-0.614784036227764,0.107741140572218,8.16934759266376,0.530064016376416,2.6336460685724,SQUAT_UP
2.17,0.247343388948056,-1.35876784778874,0.36516822399677,8.36911896367598,0.375201030843205,3.50754774684422,0.0498857587083615,-1.45944872181232,0.0860503360685824,8.64391491569764,0.78194889982751,3.85534255673074,0.074691000208391,-0.616781380195934,0.103003428417474,8.05130241615527,0.702423111568429,2.65865407566837,SQUAT_UP
2.18,0.245467318917678,-1.36126918799124,0.363023075831079,8.49286208425152,0.473923770527699,3.61217789511741,0.0103297199532795,-1.46704082535499,0.0879692047333564,8.77502470215844,0.748855305490081,3.71315122962244,0.0978008803744684,-0.624039337429589,0.105248324863054,7.89692007367956,0.7883335848326,2.47327351715682,SQUAT_UP
2.19,0.24080178667287,-1.34769447587856,0.353886174099503,8.54227132437812,0.494235722111525,3.71811826506992,0.0192302367069848,-1.49846072463968,0.0971244747302255,8.80201131227312,0.89284148611687,3.60868331248102,0.108054266502416,-0.642780840015726,0.114896936149294,7.8831170663333,0.893232095506498,2.38175072350605,SQUAT_UP
2.2,0.253119247979718,-1.33655545314646,0.366217948211536,8.56900430282787,0.493843841897026,3.55789666253914,-0.0174691419349992,-1.48120103021402,0.103811696084421,8.84815180163874,0.991770635090024,3.41527225517212,0.116871077021435,-0.651844310577929,0.127491775183389,7.86058676064382,0.931427230327673,2.33527421989924,SQUAT_UP
2.21,0.224906519941729,-1.34005175622763,0.38818823465485,8.65833022346626,0.741295038759369,3.53803665229241,-0.100255262250957,-1.43284308523918,0.098215218895221,8.66028488677325,1.34210276705617,3.58284323483585,0.126148741009233,-0.662880610480333,0.137269702673749,7.72447250624491,0.934703371201656,2.20609654068783,SQUAT_UP
2.22,0.19856962018313,-1.3316870194379,0.422383905223912,8.67797836947416,1.06230276020551,3.5410025250942,-0.114344087432789,-1.45477813706912,0.0692836322286638,8.57289204861776,1.6392669334616,3.36106659980676,0.124072520497615,-0.666679400662093,0.13436393692227,7.52298530503278,0.895461933506044,2.0837873801495,SQUAT_UP
2.23,0.139332821958668,-1.34092560098854,0.453325041672876,8.47997514299099,1.12270254547742,3.32683472145983,-0.20236797612229,-1.42801672673068,0.0568619677333263,8.53963336071842,1.60175400737137,3.09832331136424,0.110137571152256,-0.676201453561477,0.135082765083685,7.36068113806607,0.783067917323496,2.17426380861204,SQUAT_UP
2.24,0.132757858476765,-1.35055176280967,0.464451263036809,8.29938281105919,1.27793207856398,3.07048287942348,-0.315241080192803,-1.40362674525433,0.0484477695201398,8.41495841854865,1.25496868906126,3.10258210741686,0.0825385097337045,-0.695260791848044,0.118207944439746,7.37140703789373,0.702486876461861,2.14663990899112,SQUAT_UP
2.25,0.181771505218625,-1.31468689084242,0.465406683948693,8.31952396042343,1.17555173763744,2.78491993127973,-0.346258911438886,-1.39292760625455,0.0029125625495023,8.48302439979554,0.97117441274174,3.04961008575083,0.0733485935171329,-0.713757870326125,0.108168825476741,7.42077718335613,0.684381804897785,1.73956992945843,SQUAT_UP
2.26,0.170624285313501,-1.32059429170824,0.461650080182661,8.3438034250899,0.960897408553861,3.17013829894268,-0.298516294045677,-1.36508037985277,-0.0388251807384829,8.64866056285176,0.922335360526722,2.88544710985596,0.0750514277448175,-0.721116686050142,0.0997146336319908,7.50583470267977,0.690960054085378,1.74038663567958,SQUAT_UP
2.27,0.10071264839142,-1.308213055903,0.455192875883965,8.62568552861908,0.932346611543852,2.75004990495285,-0.345999516126004,-1.36904436751435,-0.090176722312645,8.41468658290623,0.834420441732426,2.64568513230027,0.0733088986651783,-0.715787451508113,0.0952856637063383,7.60576592051246,0.646622199027822,1.81004690591309,SQUAT_UP
2.28,0.133247487663177,-1.27486814996385,0.442361545437204,8.79425916079966,1.15392917990638,2.72792891593653,-0.398616439779593,-1.38276311340446,-0.113131288252947,8.54015214948035,0.668288986759265,2.26478103286704,0.0760208035593065,-0.720486173338763,0.0926409744257832,7.68931393604102,0.659717324605438,1.67713489871531,SQUAT_UP
2.29,0.151012331572245,-1.23917339289889,0.441347254938056,8.78573199814745,0.962097214177425,2.60834397853173,-0.39068798055247,-1.3763704060937,-0.127813518561777,8.55244436355538,0.254640597821126,2.46225184093213,0.0762867974625593,-0.719700783909992,0.096830100787646,7.77414119998089,0.665691756785025,1.59703826998919,SQUAT_UP
2.3,0.107751480631678,-1.26819408752045,0.4525549751054,8.76935897236959,0.746976205868849,2.61269665303572,-0.414138629951844,-1.33757186425714,-0.125396955091224,8.70889732404108,-0.001832784883139,2.43424554235377,0.0651126002956138,-0.704283546467803,0.104665134610803,7.72148146480731,0.704764915563413,1.49549418412047,SQUAT_UP
2.31,0.0771209373831352,-1.30616675106471,0.4639146384604,8.82170820832104,0.699378030803532,2.62903410155584,-0.360966218807582,-1.32505788036975,-0.121048812597133,8.65218349073815,-0.223592357716701,2.60721734948832,0.0243050393061866,-0.71064612615286,0.100285448555664,7.60194975655488,0.638169357717889,1.60692785500016,SQUAT_UP
2.32,0.0766345430082528,-1.30670013009867,0.460060310181189,8.72300825608751,0.694258494551009,2.8093472153418,-0.279657450279358,-1.35046763457938,-0.138819764929075,8.97728513027809,-0.0692848833904061,2.70455029122897,-0.0226277973810912,-0.70643650274424,0.0895654689558521,7.60825012476982,0.582050138172022,1.72380327690377,SQUAT_UP
2.33,0.10790322136625,-1.30238508606685,0.454507660872984,8.69115236873103,0.592859138631164,2.50287488862083,-0.190000179901665,-1.34019312458712,-0.167409993261285,8.90345506056719,0.508243212382569,2.40589518862955,-0.0148040398305761,-0.703399487401428,0.0824855269431415,7.62182707852676,0.56743957039025,1.64710842180027,SQUAT_UP
2.34,0.0761663307026068,-1.28076290287535,0.43295710123928,8.71152668533637,0.211562446087738,2.79480309451773,-0.0984696939302595,-1.39105503402219,-0.198371923653575,8.67047469547821,1.03458324834738,1.975285501981,-0.0074434651205476,-0.719674729917361,0.0723321795620735,7.64357126151819,0.556127847286775,1.26011693394641,SQUAT_UP
2.35,0.0626797764739092,-1.3510089528294,0.428498397374915,8.77542398103926,0.291043365963615,2.8313113100409,-0.115975532204169,-1.33200503606253,-0.204049424901832,8.73301409771561,1.19168691394352,2.17162777938955,-0.0116777807902092,-0.73168192762923,0.0505501705744217,7.83127304485165,0.544254538969127,1.18723486388525,SQUAT_UP
2.36,0.12905493659915,-1.42367142614582,0.427371783475727,9.12442153297813,0.454660673860346,2.0034496843548,-0.169579067923104,-1.30986060839563,-0.236588490020043,8.59602636733897,1.43620713703969,2.36508758533557,0.0002840932152871,-0.714918507887983,0.028591144330735,7.94705565470694,0.522372998177274,1.13963853623902,SQUAT_UP
2.37,0.155036314498643,-1.36323916011332,0.411474571703907,9.4121619449463,0.637869747142958,1.94558421336975,-0.318091128958041,-1.24509632833656,-0.244573370706656,8.93537593906451,1.58355902938358,2.353098680886,0.0222013848181846,-0.714533469957431,0.002932442281733,8.00030043152347,0.388774904760234,1.20513526720429,SQUAT_UP
2.38,0.169673408889826,-1.34611944220823,0.420014785247635,9.26128146998839,0.817896341808708,1.7833577757892,-0.421965464230088,-1.15445669220182,-0.247817253707071,9.02001682681459,1.96487571706217,2.41508368860076,0.0187949554512025,-0.722389337178027,-0.0132642587655376,8.00671664854674,0.277546315244538,1.05622410587531,SQUAT_UP
2.39,0.0876543326760072,-1.3481803948362,0.427337289709858,8.99646776992457,0.885551749783439,2.40437959135596,-0.460731188464275,-1.17977029489247,-0.266000720763641,8.89782200174786,1.60116546179901,2.57217256491928,0.0160298433511837,-0.713435320723241,-0.0322142301432793,7.9196506707601,0.154968496829629,1.27164585422599,SQUAT_UP
2.4,-0.0222528683301963,-1.33776953209178,0.450252699108129,9.0446982383759,1.22378171597067,2.50446156587516,-0.620638493286356,-1.18297370431238,-0.269492664899851,8.96390933747618,1.01909060904326,2.39971360509856,0.0247758546553438,-0.687467312388279,-0.0526107595448812,7.81525726153132,0.0774558556649564,1.39802464202798,SQUAT_UP
2.41,-0.06670539251542,-1.29756939487388,0.458574451240469,9.15875851781115,0.958228983608584,2.48494344843386,-0.713718543619627,-1.14415699524349,-0.27342605322668,9.04949552726641,0.917513815734208,1.92124116691258,0.0417581971180445,-0.696152120399691,-0.0629170661094606,7.7849482705117,0.0550316897388092,1.37919477837292,SQUAT_UP
2.42,-0.226481158474658,-1.25374384805729,0.451713198972074,9.19171425498548,0.17035199044605,2.6032692884155,-0.644060892419272,-1.13376965718653,-0.300069263511134,8.97250905329681,0.541225886756985,2.17223160513813,0.0760617392226463,-0.703812140986208,-0.0630423226367631,7.82871647067135,0.167930739669498,1.21079521529132,SQUAT_UP
2.43,-0.258399208329526,-1.21081524452053,0.417192259919584,9.17374866887019,-0.235231936825238,2.60226769383076,-0.579193792920824,-1.17032098822518,-0.350684974805705,8.93626429370157,0.292049383647109,2.13661437929477,0.117054797383384,-0.689085480576948,-0.0468367699941523,7.8480190747792,0.289587662207575,1.0908747856439,SQUAT_UP
2.44,-0.104585615331333,-1.15271130559268,0.378717185576663,8.90462723506716,-0.84954897371845,2.31423438833461,-0.577908023641355,-1.13282964750211,-0.375957393117712,9.14823703639958,0.453198930288298,2.17518965383646,0.121760290754381,-0.690226850766446,-0.0190511046256161,7.83898890507415,0.514015268601223,0.987965812973782,SQUAT_UP
2.45,0.0199772028924324,-1.10707152159735,0.318653871737097,8.81413653320112,-1.55750376935737,2.53155559186833,-0.590936037391299,-1.0568346320151,-0.36251700797981,9.04459708655571,0.53883996335995,2.28732762257526,0.130709296583757,-0.683749618572911,0.0229474758951919,8.00799108438356,0.695013988806494,0.995371638429976,SQUAT_UP
2.46,0.140211626785785,-1.05967175938984,0.296756737172574,9.16358554233791,-1.35559299993965,2.59098915450206,-0.618998165244928,-1.05493039425883,-0.338954091524826,9.4157053880058,0.575697623912499,1.88559405583334,0.135993440718713,-0.673695419438648,0.0613783106761694,8.27383482688399,0.979682188922344,0.985838782330596,SQUAT_UP
2.47,0.353595623479518,-1.03594315764948,0.295804871127563,9.55436486151175,-0.945807243877836,2.08726315727509,-0.661711364758875,-1.03615922604742,-0.295744481917059,9.67788061535896,0.554947743676217,1.28932802991722,0.126428775087698,-0.663415835024482,0.11454009289919,8.52763898315736,1.24284720910104,0.850296375070974,SQUAT_UP
2.48,0.51112100304071,-0.99910904132339,0.281883916276406,9.97814695440199,-0.803126062883622,1.32950513135501,-0.695528446314908,-1.12774842575464,-0.267321946844555,9.50906207505044,-0.0767986010047368,1.49732455008556,0.0900558473179589,-0.634598670212735,0.152015176468918,8.77866974086751,1.2981671819075,0.834530849355764,SQUAT_UP
2.49,0.633535432372922,-0.963715843302911,0.281987861062546,9.91995590884623,-0.286195872053106,0.874082784581479,-0.73147951706883,-1.24023073345356,-0.277847306270857,9.56124539671117,-0.393756181755968,1.10540747730934,0.0354668532695145,-0.605323532905532,0.17021938028906,8.92246953266203,1.30383943343905,0.86734847321011,SQUAT_UP
2.5,0.616174581430539,-0.937745599158621,0.274038708327366,9.85124941524992,-0.020285114515138,0.835636555938304,-0.710502566796102,-1.30333605172882,-0.254833342722652,9.49703668524429,-0.221233126120244,0.786276322666671,-0.0191134550695496,-0.570358324834097,0.175194903547438,9.00507001040895,1.21237854966659,0.835726888664211,SQUAT_UP
2.51,0.483573331616742,-0.864222407988053,0.248835677598603,9.75216440993122,-0.225334284738493,0.822364979885297,-0.617288022214886,-1.37167468071628,-0.22177933973137,9.56258712646963,0.0559453933461402,0.655178037120509,-0.0646642117487253,-0.539908236441619,0.163360943079505,9.1675327536505,1.13309611520906,0.848006710468403,SQUAT_UP
2.52,0.382554232082835,-0.851261390882234,0.211316647195229,9.71170694977903,-0.435267930879934,0.817785842028593,-0.537682783722856,-1.2770672546326,-0.198681685736601,9.73820383047735,0.0518285843583014,0.653260217453334,-0.115333765010396,-0.492467184731908,0.135205654195322,9.27501892210079,0.861338348301354,0.985362058397211,SQUAT_UP
2.53,0.445333138910479,-0.875351927056343,0.180126284343517,9.57353620029697,-0.702033851251668,0.717845869029108,-0.416680984808577,-1.24580579282164,-0.21802538092337,9.84127573832934,-0.0937817834294321,0.852710027534592,-0.153867583868042,-0.441959350980778,0.085634991530515,9.38329493538752,0.611330753756542,1.01580912148354,SQUAT_UP
2.54,0.437157216866705,-0.882110405284304,0.178641642322103,9.55065919948514,-0.920033449048098,0.57685194561789,-0.237608399674136,-1.16639489376339,-0.225991098920491,9.78119394800182,0.239998572754932,1.15643099081645,-0.156875506176774,-0.405190129180357,0.0250742441876478,9.36540698982179,0.349165580117465,1.0401862984164,SQUAT_UP
2.55,0.440137383299494,-0.884562920239974,0.187010695992164,9.67431072264135,-0.923395697262925,0.255638248433146,-0.107970373210873,-1.04129715403138,-0.235214028748224,9.61997448535518,0.941050777422991,1.16390980103138,-0.129343646536899,-0.383450173970815,-0.0304700981775397,9.3516493228457,0.108063008150555,1.11270913445798,SQUAT_UP
2.56,0.430457392373359,-0.830063130655007,0.190700165296705,9.71821171855496,-1.36601545252194,0.337465675528384,-0.0570255712940694,-0.8791542951181,-0.203310203672163,9.5335710119006,1.84138961398624,1.27233072913056,-0.0992689379570705,-0.366695117056118,-0.0807369989557867,9.3587424701978,-0.109861358653317,1.04892392052295,SQUAT_UP
2.57,0.31791147176932,-0.772714568924881,0.213890549286391,9.82650797268495,-1.27125120373793,0.797188550620454,-0.0584624849755498,-0.824065034357999,-0.183007856729469,9.43885975707295,2.57344438593617,1.46245260484519,-0.0566747651351224,-0.36215966398342,-0.111267114001625,9.30902510280546,-0.161691320089849,0.522712006807963,SQUAT_UP
2.58,0.170788675435677,-0.697004329720342,0.222685083316357,9.93864109142299,-1.19514218091745,0.892927909758043,-0.195512645810518,-0.835545647954972,-0.152883497341997,9.21174252809505,3.31407894304988,1.02858855643112,0.0032606537035403,-0.368748415693086,-0.119522784813835,9.42390611332276,-0.125481331269452,0.183193150445478,SQUAT_UP
2.59,0.133084142997245,-0.592901692314223,0.216640477435458,10.0188237546904,-1.16982827084527,1.1116292561119,-0.385333620914738,-0.84169258103696,-0.130862626392853,9.03273438897984,3.17835853502898,0.445186101068075,0.0309728130426381,-0.353477066010301,-0.117873380007818,9.41109793044229,-0.0259065294364974,0.457604329336497,SQUAT_UP
2.6,0.220664165669543,-0.520148272160182,0.209077025274269,9.93502345859351,-1.01177839483952,0.991680758135724,-0.505075130188861,-0.84087499606184,-0.146365077034023,9.51595846029643,2.43048174258818,0.338688225232452,0.043927337126647,-0.336481669540485,-0.101284714012911,9.4286186112478,0.122479347376042,0.687709332159624,SQUAT_UP
2.61,0.266829857685156,-0.505393822138475,0.201136269417353,9.67303561790886,-1.03616431992573,0.690388951859092,-0.506685600065727,-0.796036674112305,-0.154257651476524,10.0907432029856,1.9816475881397,0.275799779202901,0.0781028643040748,-0.350592518508306,-0.073722889939822,9.54469064574711,0.319639873344593,0.70777180854982,SQUAT_UP
2.62,0.210572451844196,-0.48382720036759,0.204650885743057,9.82593031549178,-1.01701910503619,0.13991437164878,-0.433141105622142,-0.732648322280425,-0.153636828603994,9.79366183972914,1.72862946259409,-0.0276266716784597,0.108575691035659,-0.347177776693536,-0.040819511821196,9.59173987976276,0.495179421240557,0.740886212854649,SQUAT_UP
2.63,0.0773762724511318,-0.492113566604969,0.235450199409852,9.904985641219,-0.699555670084885,-0.310942039031861,-0.357786525335333,-0.703937881786514,-0.177694240240315,9.70800701230441,1.08166071388301,-0.156642121855935,0.134073422598097,-0.331998449741297,-0.0281899261479055,9.66549022861489,0.655875239265144,0.879190848427811,SQUAT_UP
2.64,-0.0492989828036634,-0.515691848109361,0.232708282683738,9.57244926325421,-0.494485367450633,-0.549484464958158,-0.343890723685751,-0.645497438248687,-0.19742047070029,10.1136839805448,0.408236516261184,-0.205110678008763,0.144810743754481,-0.312918939737502,-0.0165240113764122,9.81008457434884,0.824359302736414,0.876478566342979,SQUAT_UP
2.65,-0.206156651451476,-0.534374548765309,0.221110176994859,9.3353333890244,-0.540277278906772,-0.851646997580699,-0.242845597200143,-0.635534700224609,-0.215427166744974,10.0596768290984,0.297949335891978,-0.297145169383128,0.157791500518632,-0.293440448906435,-0.0145394254741625,9.93159817126521,0.985979929288507,0.879347171760131,SQUAT_UP
2.66,-0.2758673780816,-0.523553653944388,0.198114332928607,9.39748080286374,-0.590964189753514,-1.29174240653401,-0.145077991930722,-0.614952379408467,-0.22222739384685,9.77312392019646,0.320532491338111,-0.599702693904802,0.152117152782844,-0.284359845229878,-0.0108516169348009,9.90174246861802,0.969540610532636,0.912076535068631,SQUAT_UP
2.67,-0.293842765752818,-0.525824436808538,0.188796313179959,9.48036726711552,-0.788281528997321,-1.08901720396837,-0.0462340559702678,-0.619853617563546,-0.231310331076927,9.69123146530717,0.406484682791669,-0.772353454269009,0.126286756477846,-0.2628568464186,-0.0182856678448045,9.83242851995171,0.88359902417923,1.02850231322611,SQUAT_UP
2.68,-0.323615352023515,-0.527518569814103,0.203289353420238,9.84508129387702,-0.783663498585677,-0.972252605913891,0.122852576285029,-0.532564599307061,-0.211080275264083,9.79311870369121,0.769307478622876,-0.849363372522625,0.0825089883337448,-0.249327975237734,-0.0290447110612907,9.72110193018431,0.720872293372282,1.20667130634848,SQUAT_UP
2.69,-0.34649269425049,-0.500458639364286,0.215059844131206,9.994608109173,-0.556144152044341,-0.870123919900026,0.320466926077334,-0.418065991604346,-0.194664995499971,9.66109794965629,1.16682577497286,-1.08111438861917,0.0568039268917702,-0.255262511943928,-0.0461916751351281,9.49528101300846,0.60448879924116,1.20567407633725,SQUAT_UP
2.7,-0.35568645281716,-0.48525896080086,0.212085455935582,9.95981683513686,-0.679407402936488,-0.826637870603956,0.464024900501101,-0.338672550764067,-0.188297357126144,9.60900956178413,1.66589466937169,-1.11960722256657,0.0677009306204106,-0.267228160082719,-0.0673806175888915,9.50507672367313,0.519681289016428,1.03053770406076,SQUAT_UP
2.71,-0.40169168925991,-0.460538268193994,0.208488451168988,9.98697671749036,-0.864781649560226,-0.567466869566791,0.526631395055366,-0.276514169500019,-0.162269770869601,9.5877686501065,2.3588556609737,-0.73119322724044,0.0677009306204106,-0.267228160082719,-0.0673806175888915,9.50507672367313,0.519681289016428,1.03053770406076,SQUAT_UP
2.72,-0.418333029276994,-0.446511536930458,0.197306048613452,9.93278122173622,-1.06262525329507,-0.599357683374582,0.456071882013796,-0.281599405810974,-0.143527681337972,9.65902551748353,2.58753244247937,-0.462150339069281,0.0882827281429857,-0.270491039071758,-0.0877569603520753,9.70009014868362,0.445975156193923,0.952981928660903,SQUAT_UP
2.73,-0.391704401971681,-0.415358476339092,0.168363301621447,9.97243141817989,-1.39805190979416,-0.568781602650516,0.266406449032317,-0.289457332785032,-0.0986580243536993,9.69250509690453,2.6505951341241,-0.476615311423154,0.116488398336859,-0.280495182800238,-0.0889941353760872,9.91242036995155,0.483173263753156,0.858357600260791,SQUAT_UP
2.74,-0.294694905987316,-0.387256784572911,0.126630036159773,9.73533381390804,-1.66010508307717,-0.572351902727077,0.0665938013689941,-0.320909331839164,-0.0568096238676615,9.31721787860583,3.2319699986218,-0.605624573399687,0.154928873763584,-0.277452056050873,-0.0776824315406185,9.96804096630115,0.552074953166087,0.695809845149192,SQUAT_UP
2.75,-0.185658778052834,-0.388682573861181,0.101843764072768,9.6932517729063,-2.04048450096702,-0.467495167128402,-0.102811631547539,-0.325645879924066,-0.0519862334432255,9.69613979061257,3.34059762805009,-0.949082542312285,0.201540580017321,-0.262853172257488,-0.0612640075050081,9.83047143982236,0.666896223214243,0.650990970784751,SQUAT_UP
2.76,-0.101378618933703,-0.348180071008957,0.0816026291747585,9.77211395727963,-2.21333590273474,-0.344035879573866,-0.229314388237896,-0.273849975679645,-0.0350201633445395,10.0834429245296,2.40794496512182,-1.38550449103033,0.228936958933298,-0.246759120689557,-0.0463386765112739,9.74533288945255,0.809493430394005,0.641287894550223,SQUAT_UP
2.77,-0.0458919782420669,-0.305170870858024,0.0638807572541849,9.82859061499311,-2.28966116617721,-0.375608252923586,-0.0083969490537589,-0.280821936363615,0.0130010053921235,9.65056104444164,2.20349290719886,0.0986495199938718,0.227090273054382,-0.22619700553622,-0.0338662311049017,9.72166097826151,0.919578053327803,0.634640426474606,SQUAT_UP
2.78,-0.0080102195606161,-0.257653955355363,0.0470448577602119,9.86435341769712,-2.09268067861727,-0.467924057249434,0.0519064775325695,-0.287681160325043,0.0024345930423844,9.80355844403207,1.87367775074754,0.0586837853103535,0.19622911423171,-0.202665933576168,-0.0235471213635172,9.83647765278998,0.960760145998581,0.685034744191499,SQUAT_UP
2.79,0.0279172654538174,-0.177864454071027,0.0196477443076515,9.97426012232257,-1.76265012148903,-0.560931442090119,-0.122939833819741,-0.189389631898398,-0.0339511411921341,10.1381949233988,2.11417932836515,-0.639343336466334,0.151288001951929,-0.157036277966414,-0.0090469336560962,9.95717452538413,0.897899079237022,0.749384982617857,SQUAT_UP
2.8,0.102363221325189,-0.110926792150871,0.0016168426338483,9.93432307397128,-1.52826469572489,-0.800801020950442,-0.223235952200482,-0.0364390422688437,-0.0540438256805699,10.2000696691111,2.03913598185849,-1.1060342099492,0.114702090546328,-0.109718746457347,-0.0019836519400578,10.0738573056778,0.820303843303928,0.692487316598404,SQUAT_UP
2.81,0.104187477813463,-0.0362825597740081,-0.012689117914999,9.87774560796975,-1.17296948490221,-0.787570690381148,-0.131316972855706,0.0377374758057048,-0.0657294630650066,9.92601488541911,2.18930540094421,-0.646756923838827,0.0955942524068192,-0.0594889763871411,-0.0035747139682601,10.1256829306907,0.731312918155685,0.681781575358969,SQUAT_UP
2.82,0.0898062954683392,0.0070688205694138,-0.0209271619551212,10.0096524293272,-0.638714331107528,-0.748666624623869,-0.0585320044118343,0.0660720397385543,-0.0721128205515558,9.58044243502481,2.07164601620636,-0.66064189635319,0.0682899861431938,-0.0187912148095812,-0.0074160878088997,10.0633846584235,0.654652351766304,0.848627936672197,SQUAT_UP
2.83,0.0643042177880935,0.0420557091617369,-0.0319319910343358,10.0727445814846,-0.745269688715646,-1.04730668868178,-0.0170187272335911,0.0569315590303387,-0.0645031239117833,9.69569961096415,1.84819896241517,-0.7863052151598,0.0502794018462521,-0.0105279005522082,-0.0162934869667767,9.99093278227976,0.667557362491089,0.881040042173991,SQUAT_UP
2.84,0.0129523142631216,0.074792293767927,-0.0418439435674662,9.87108456373633,-0.97387668515152,-1.32993708921352,-0.0033748209495405,0.0756821084931358,-0.039083089266495,9.87993760892593,1.72878478583877,-1.06728548848204,0.0410322325016231,-0.0296698644889831,-0.0278301309550039,9.89486880125987,0.663944785547234,0.712346758510123,SQUAT_UP
2.85,0.0045804784582508,0.0764316851307195,-0.0460895864471519,9.5065653467764,-1.06156573833447,-1.41740843234095,0.0088862781628724,0.0812824790449976,-0.0045782265532049,9.75989862716443,1.92648569373832,-1.26741393334605,0.04356661982376,-0.0459384455963358,-0.0427020419747709,9.93837530754476,0.702869290571167,0.423863196753445,SQUAT_UP
2.86,0.0217373566460068,0.0500188292642845,-0.0382637813599518,9.4889846125358,-1.04830859777311,-1.72319493230077,0.0128644813433872,0.0808185224639278,0.0112506247233816,9.50655441223958,1.97233145620981,-1.52468475488311,0.0498580373289724,-0.0581103890977441,-0.0460734746753748,9.94153870522149,0.710376719234564,0.337508660878495,SQUAT_UP
2.87,0.0630085200283973,0.0418298262582363,-0.0368140420182629,9.54205380596744,-1.22825986105216,-1.85307036152077,0.05485012032196,0.055000416952117,0.01558067111082,9.47638140773746,1.93898289964378,-1.55042218580016,0.0466296780176743,-0.0713109027787679,-0.0372064284596915,9.8884545417505,0.6847885924174,0.298087790788605,SQUAT_UP
2.88,0.10047559125339,0.0303768134027643,-0.0427052123749318,9.42535690994789,-1.26859279788586,-1.91158423125685,0.0731439232608486,0.0670100844528516,0.0196189427412694,9.56127207032622,2.02742806682928,-1.53147697403242,0.0479481091441087,-0.0611552355509669,-0.0248910289455673,9.82282293780833,0.665810251826273,0.125717250959716,SQUAT_UP
2.89,0.150297437963026,-0.0075351870411463,-0.0425958439756621,9.4056463906219,-1.16369908928277,-1.89337459358738,0.0587683429973308,0.048160654332816,0.0136355227050259,9.49267503683937,2.09008504620593,-1.61760097972321,0.0506807639938967,-0.0531087425278875,-0.0171017207902717,9.74702750654608,0.631545302979832,0.0935051015922706,SQUAT_UP
2.9,0.132775480892366,-0.0327038205066539,-0.0368833160065558,9.51809425078871,-1.02031054056477,-1.53745168030768,0.051568073181562,0.0559332560726913,0.0244129087760424,9.29780749950699,2.19257899952984,-1.63716082376689,0.0247795143939029,-0.0484557190743746,-0.002429146685775,9.82351365923404,0.674725011330777,0.217951285913139,SQUAT_UP
2.91,0.0832997431206954,-0.0323102550170571,-0.0362179086434681,9.63840834635734,-0.920853119135582,-1.45254974105039,0.0142367335163201,0.0579676261296431,0.0204137001595176,9.23555642206663,2.08861286119127,-1.65659201966471,0.0049662624293433,-0.0243266903382006,0.0098634468166501,10.0489212738998,0.727162047773168,-0.0555670732711209,SQUAT_UP
2.92,0.0348458777453785,-0.0005479989009943,-0.0359423564514526,9.68369039626397,-0.833852298923467,-1.37783489390719,-0.014066588313668,0.0661408122103584,0.0156074287875003,9.40778789715285,1.83812400242155,-1.40168761720843,0.0107456652102684,0.0027837973292343,0.0156705956151126,10.0704137422967,0.765537749612393,-0.12826904328737,SQUAT_UP
2.93,0.0069455175475103,0.0422040291475247,-0.0366200398996213,9.67879616537946,-0.730630599947072,-1.08249857967467,-0.0015190855270271,0.0436136303974745,0.0191128315083285,9.55177099768115,1.83826472795461,-1.16254452144198,0.0084169123403172,0.0298002956307334,0.0192389265042186,9.98139456502266,0.7496915508441,0.105330241218675,SQUAT_UP
2.94,-0.0166205131248435,0.0433759633861218,-0.0316081245224531,9.77137419038327,-0.726230499008174,-0.843155321550223,-0.0020855550116161,0.027104560144213,0.0295955988000488,9.59259396869717,2.01996288531956,-1.02426487514929,-0.0013540473110758,0.0519596003470776,0.0197223208987961,9.88715955136184,0.758371618486083,0.253571716800991,SQUAT_UP
2.95,-0.0374089006510133,0.0689052815081824,-0.0295586974061623,9.8089955702771,-0.852503085520587,-0.770642236012161,-0.0057967530544324,-0.0001365911242666,0.026960911936371,9.68084775681847,2.09043329782749,-0.91883480550689,-0.0113981781256639,0.0362857995227615,0.0203285383697924,9.75098965769653,0.717849289527404,0.295673594868117,SQUAT_UP
2.96,-0.0530855680311604,0.114955979972907,-0.0587266890543928,9.72068116851949,-0.980431376427597,-1.11923228618956,-0.0051383099954148,-0.0150838632875981,0.0275388694803659,9.72512872110131,1.89941127852177,-0.812445451468231,-0.0037431529947484,0.0281380384860632,0.0208611503336022,9.62557881329834,0.697141297188984,0.300746444052222,SQUAT_UP
2.97,-0.0279760856616143,0.108724081111898,-0.0702146814202351,9.6110045961688,-0.952959324198542,-0.971949962086104,-0.0029386433325733,0.0128647423845935,0.0326715278803304,9.83121246858228,1.82847295594748,-0.830604101738588,-0.0014163095107125,0.0187686786365629,0.0284891538730935,9.53418852969626,0.66330546972163,0.22468112828765,STAND
2.98,-0.002329156080421,0.0882073059744628,-0.0604805269318981,9.69845887844137,-0.78702732819405,-0.986323640448842,-0.0112943861434021,0.045209368983179,0.0379917714941535,9.69791528763045,1.75104675117361,-0.903272230941117,-0.0046833318442882,0.0127152840200779,0.0330212473916481,9.52673234009222,0.643283859739998,0.181099565363929,STAND
2.99,0.0201151225443173,0.0754041690294791,-0.0550841234555054,9.66855923914532,-0.601713036783691,-0.987313192989035,-0.0400005654463675,0.09407791386865,0.0497240595773068,9.66485526079762,1.54655744678584,-1.00132220154261,-0.0068309344576662,0.0101360784266101,0.0384177029760696,9.51931556383851,0.622793338005798,0.137120527630367,STAND
3.0,0.0043234385428659,0.0708547634105731,-0.0478483034186315,9.84467883379702,-0.613450186249101,-0.860306311621315,-0.0238212808166538,0.10986101585178,0.0605226296266234,9.45074454965772,1.50763897557442,-0.968982475828713,-0.00516979450438,0.005527921408142,0.0468877531343259,9.50066704943972,0.62087286288787,0.166716066233271,STAND
3.01,-0.07504915014846,0.0674310562436979,-0.0575896695640968,9.57848486376596,-0.315347676714603,-0.701929874462441,0.003970496903216,0.085259887298199,0.0489681075756144,9.32470561156566,1.30034653573464,-1.00840171356509,0.013874288315449,-0.0015802874145761,0.0522930132967073,9.51135294586472,0.675013450951408,0.169279219511427,STAND
3.02,-0.0700418223539793,0.110605949751317,-0.0600408491128434,9.87334334993686,-0.686085158155542,-1.17368304564327,0.0377594888571565,0.0520405159862266,0.0270687269279189,9.44402674454851,1.04641289822945,-0.983721672667597,0.0290000508128285,-0.008985096265183,0.050302654367297,9.55651412414472,0.677078937067226,0.0526938903674999,STAND
3.03,-0.100361331670162,0.155714739784109,-0.0568392272046502,9.77827881396162,-0.59073096969374,-0.492936502827069,0.103524943741836,0.0398111801109,0.0109151813743292,9.74991349297567,1.07674427046201,-0.938690799021516,0.0407140245522112,-0.0206720948400603,0.0541350776411917,9.63205664697419,0.702387050762918,-0.0260794294704858,STAND
3.04,-0.0808082699484974,0.176911200816925,-0.0512350541724602,9.87324093006513,-0.637528493745965,-0.808012846836053,0.173078140533879,0.0661738658590466,0.0249201161042097,9.94057305229383,1.45082053870331,-0.820891407638956,0.035525210738604,-0.020619117677961,0.0499696529952521,9.66318966754557,0.681724511571742,-0.0276467544422309,STAND
3.05,-0.0300607615803338,0.200728485222654,-0.054570859282114,9.82040688855864,-0.558588820155568,-0.582593900259196,0.191269103994427,0.124234053185325,0.0513071996440642,9.82393964233502,1.90078916938077,-0.680469304943587,0.0258202798555621,-0.0324074023777773,0.0451592674131036,9.70440005372902,0.675284545700556,-0.168930288951267,STAND
3.06,-0.0550695877103411,0.207026686921317,-0.0729762409335766,9.73762884028867,-0.816902288032471,-0.379426568931199,0.164895771234219,0.149367840252628,0.0678135611116981,9.56511231801719,2.25284389926672,-0.544833231243532,0.0238189266286302,-0.038802563002214,0.0464609307462613,9.68222303458213,0.625392023167157,-0.204362181966957,STAND
3.07,-0.102058230418538,0.195497661120332,-0.0950996941047892,9.98852757734911,-1.34575596458886,-0.593607231060112,0.105685144969021,0.125901723745237,0.0560419354221738,9.39361794095713,2.2867446901372,-0.441227822474155,0.0200798263953352,-0.0551354104792566,0.0464894959629987,9.71182764798759,0.67740073167796,-0.235597759066422,STAND
3.08,-0.0425406969631538,0.203059788502064,-0.0989759523171705,9.87020481730759,-1.31588888664314,-0.683491747549724,0.0139721706317356,0.0665035725151842,0.0302573480673594,9.4510360284458,2.21156157678348,-0.681706014806258,0.0188869753917181,-0.0752032305854351,0.0500180148724618,9.7721659243272,0.713506850117099,-0.267990094660958,STAND
3.09,0.02542893903808,0.163024366767551,-0.0882503776898784,9.66769487567851,-1.21166718489672,-0.547444269624304,-0.0599437504514961,0.0350646825228058,0.0212548922140168,9.63919924396959,2.02477923243784,-0.771151922970375,0.0154862969429036,-0.0794770303162225,0.0558404051569107,9.84834901348406,0.744238736240845,-0.249640395487092,STAND
3.1,0.0690784720465952,0.126364007971236,-0.0701866721626089,9.638447158671,-1.08792188879163,-0.619823618313177,-0.0815063381217222,0.0059423892104406,0.0133448003148554,9.72174563524111,1.70287865679236,-0.679465533611032,-0.0124189149720177,-0.0729934830780137,0.054713736701962,9.93250225924515,0.791829510219639,-0.186147693210758,STAND
3.11,0.125623631473266,0.133746847982401,-0.0525816805790378,9.81566649913768,-0.901728596134642,-0.94740727094129,-0.0690929113613574,0.0432512921214946,0.035453194388243,9.83713158002842,1.31719375407442,-0.734440641458441,-0.0303613717819771,-0.0470399859524373,0.0570576949178854,9.92364940895837,0.841437074228629,-0.264206358948125,STAND
3.12,0.141903696265038,0.145342946158174,-0.0389290939963803,9.80850327072324,-0.771792173702478,-1.02030847537993,-0.0273837636360152,0.0972914557525561,0.0696287948930395,9.78961293238516,1.34674779358469,-0.645974533442446,-0.0511837792597903,-0.0303919277711617,0.062885845317568,9.91209133691271,0.849050587400785,-0.297168928802538,STAND
3.13,0.0795561011534704,0.136540032020969,-0.0367975890224561,9.72203613504489,-0.698019549158915,-0.989213105610852,-0.0289472026998444,0.130661617933049,0.0685861637871645,9.86851287716852,1.39053019265952,-0.460541251907365,-0.0604997517430236,-0.0063719882282676,0.0551538303880061,9.87623369781771,0.775712643390493,-0.213559357188826,STAND
3.14,0.0377226230235513,0.147273716759465,-0.0398320608278011,9.69177891041559,-0.524589106493555,-1.16036743955796,-0.0356038299376509,0.16090795277451,0.063318893289776,9.74321888447053,1.55604793208413,-0.528247879794427,-0.0769611982319219,-0.0121288561144464,0.0548276438821037,9.79647921808238,0.726229091641267,-0.262415028168662,STAND
3.15,-0.0039947401148146,0.15010396910995,-0.041916547401793,9.58414040869176,-0.401042983794603,-1.01716818490592,-0.0582111740703812,0.175165485734754,0.0528440262070076,9.64402523165357,1.60244638622383,-0.724530406125261,-0.0861874330719011,-0.028935091454437,0.0476638099788322,9.81266032707594,0.638347911468135,-0.288237668290609,STAND
3.16,-0.0364821558321758,0.140184647951037,-0.0391759617246632,9.5959247157045,-0.582453711666127,-0.905389765239509,-0.0835482916960105,0.142518539186286,0.032454612347133,9.4240491998967,1.63883155449092,-0.847863753633092,-0.0918812545484749,-0.0391455681242436,0.038988406771784,9.73779146829949,0.565439038812019,-0.251772059109501,STAND
3.17,-0.0586383505438703,0.132619577540404,-0.0266427483156161,9.59533404946189,-0.860936696156162,-1.06779554518853,-0.076213858894354,0.109808810113894,0.0238398133855202,9.39139456944962,1.54831124917336,-0.937923246713862,-0.0951845092003625,-0.0503152767908442,0.0223265965887821,9.70826801327276,0.506178177274034,-0.229151532745803,STAND
3.18,-0.0780135649401188,0.0974646103450082,-0.0097132926594098,9.69217226098528,-0.938033361799878,-0.882837737445288,-0.0581159039358634,0.0842185769079516,0.0159079617756386,9.4637426223065,1.38958831891899,-1.04713020488589,-0.0843139642476315,-0.0514404501917232,0.0055299166368172,9.70540803244802,0.463140063427995,-0.191054481270615,STAND
3.19,-0.0855179773053116,0.0704834445138918,-0.0012910199989703,9.80051194665391,-1.04286988267984,-0.740167112946773,-0.0526416370872237,0.0746693531669968,0.0133714673772918,9.45894282291869,1.38638262493953,-1.17894841678047,-0.0668546784324268,-0.0527112207887554,-0.0088432187714283,9.71589115994441,0.444429692611243,-0.269830414425087,STAND
3.2,-0.07595836059773,0.0340488185451066,0.0064993334193435,9.76401856357791,-1.08135577821912,-0.842842436159613,-0.0389012856429333,0.0587486275022826,0.0171453892522912,9.56576743929409,1.39122492885772,-0.946712778391877,-0.0411507285238091,-0.0516173909847476,-0.0166778225275153,9.79587107930319,0.450819299027058,-0.264516592113435,STAND
3.21,-0.0486817081182912,0.0234763463443875,0.0053074762599584,9.71770212382934,-1.03939089734023,-0.761932127960417,-0.0216084243912997,0.0415986518315351,0.0177468800975143,9.65744402256063,1.44541735968519,-0.805698882739607,-0.0186160515920476,-0.0491504927473412,-0.022807528586013,9.93992126703735,0.468141058222385,-0.301009890122421,STAND
3.22,-0.033893170394418,0.0313275997109405,0.0037426832616124,9.73314200506292,-0.902170269180597,-0.72551972669018,0.0066819975632337,0.0410547660448051,0.021500413353479,9.75534080990207,1.50171554331964,-0.785171046993882,0.0075176350873511,-0.0482684536970502,-0.0133488410122332,10.0922775670825,0.540924856444442,-0.254112028871497,STAND
3.23,-0.0280480344770665,0.0490065591919765,0.0032481147611507,9.70113173481213,-0.777533308706153,-0.633383706554919,0.0346344453531068,0.0440676624485083,0.0256130232135778,9.81755370863387,1.5056633754012,-0.588194986678388,0.026960546554034,-0.0352635215293623,0.0090357176820783,10.0803014702981,0.593617445363032,-0.249400135498415,STAND
3.24,-0.0120702587133155,0.05961134654828,-0.0007848993858347,9.69025198954277,-0.755460039730459,-0.676928921755042,0.0410145255086137,0.0577629857551906,0.0262834409725324,9.7849860406862,1.75011613280411,-0.680206105170385,0.0228301346408814,-0.0095429430360623,0.0351667010844098,9.96724769352808,0.637926778165093,-0.142936947368214,STAND
3.25,0.0235078779342025,0.0558929488382842,-0.0019836447473836,9.61139690357068,-0.878314716821259,-0.978266267609798,0.0300452531909661,0.0579818699777297,0.0280664812448159,9.61334876409796,1.82641693308155,-0.623083839912861,0.0038792465995502,0.0068263596589164,0.0566727556811909,9.83148391138574,0.634912807876344,-0.0661848333497949,STAND
3.26,0.0297412170987812,0.029105262563526,-0.0025711008609521,9.66766837286491,-0.765770356779965,-0.788813191853307,-0.0075349354760231,0.0617986721745877,0.0257115316165936,9.55504130151191,1.74348753318402,-0.852103623854941,-0.0100257144467172,0.0126421404935339,0.0667497627483539,9.7344305586631,0.701593127198501,-0.153872954720491,STAND
3.27,0.0209526384589133,0.0018342391028819,0.0008856905046851,9.69606282569299,-0.54146787039549,-0.655283670805032,-0.0388738723911092,0.0567374199845836,0.0187500047983239,9.45527777849732,1.70025224083807,-1.1520795120291,-0.0155621562168236,0.0149631486246076,0.0764421475934524,9.74947308252224,0.684040984005363,-0.203985653635027,STAND
3.28,0.0132035908400377,-0.0009370876368828,0.0029004941446241,9.7325057910375,-0.72999104316274,-0.699697871723146,-0.0317052667708142,0.0482283928767732,0.0176641477229092,9.47972547768934,1.59679410101708,-1.10740098654054,-0.0234691664507309,0.0144563340000734,0.0616893851504263,9.69819994363664,0.69238019150725,-0.0928983760149725,STAND
3.29,-0.0073538412344327,0.00326379805649,4.37597221244e-05,9.81858232568241,-0.792554349371307,-0.539402266494994,-0.0318695517092503,0.0484926743411469,0.0120177114192913,9.55503665134817,1.51424856775489,-1.03988733595409,-0.0223730244461381,0.0077246791696955,0.0485070211087462,9.71880550158518,0.690106384292609,-0.0172166997004907,STAND
3.3,0.008312022206568,0.022210293420986,-0.0034688280688956,9.90155129486297,-0.963769817446108,-0.548971732851388,-0.0276733374128566,0.0441524593472953,0.0046058676629236,9.62332243815314,1.52260651896678,-0.961023279463033,-0.0127860431923475,-0.002239331471304,0.0364585826166801,9.73361677406859,0.675385104042922,-0.0683770537475774,STAND
3.31,0.0614618257981363,0.0492544498413115,-0.0036945184439972,9.86680059193952,-1.0613737057215,-0.642480238934338,-0.0283937953068452,0.0156370705895041,-0.0027800462102416,9.63559290293322,1.62060209756291,-1.04475038587958,-0.0019099259500192,-0.0156212348691493,0.0311203928965997,9.7284730607179,0.697326530851578,-0.156829790208346,STAND
3.32,0.104874144648401,0.0428891948491477,-0.013332031177546,9.73438478790139,-0.952363571718893,-0.508819948926596,-0.0113063084076745,0.0037879962780714,0.0021278752412108,9.60740454347484,1.64669772604866,-1.00461300835233,-0.001025921233616,-0.0218878423914349,0.0304767982517847,9.77465665533752,0.595338061695204,-0.183162793022019,STAND
3.33,0.143334808255521,0.0145900726719533,-0.0209837992996603,9.67827475553006,-0.896408478331106,-0.772951967649757,-0.0085433511830475,0.0069262294085631,0.0109260914083646,9.5887531578691,1.63868223335208,-0.905330633932825,0.0006400338332522,-0.0193828594972828,0.0345924790005752,9.85377152646687,0.630411147857811,-0.240232465209297,STAND
3.34,0.137976748335929,0.0242514105908004,-0.0229612714862845,9.63867865909879,-0.757340542333535,-0.784470787173024,-0.0085761992496434,-0.0098822131260229,0.0060013061232459,9.54940652628286,1.51028882899629,-0.910476397303482,-0.0008397983728409,-0.013466000875702,0.0432287976215436,9.9916737176576,0.629704613945665,-0.215407315003875,STAND
3.35,0.0941515632881932,0.031521271218825,-0.0103908656794064,9.71132268708807,-0.569628461669026,-0.762739810685466,-0.0031777127797587,-0.007354453472512,0.0214860382459901,9.58624807223464,1.48665781258691,-0.869641955538392,0.0008699170957792,0.0135376673909574,0.0527459490348301,9.94277520349501,0.643161433257637,-0.186723694322636,STAND
3.36,0.0263600237744502,0.0496272917790138,0.0017922184038633,9.78118471772604,-0.49258254064787,-0.910765034248998,0.0261269986751058,-0.0007827582790851,0.014046494647145,9.63368035483976,1.39229249032397,-0.789645800540403,-0.0074110298166242,0.0364333464657953,0.0656622094613522,9.82575830005697,0.637270459789196,-0.136254545306235,STAND
3.37,-0.0084739806395929,0.0569748350480738,0.0034254621027357,9.7048368759497,-0.557279872099506,-0.855773078963022,0.0175389731117018,0.012174240174553,0.0196853286359601,9.63971024574404,1.33698207223063,-0.780262594887678,-0.0208260971750104,0.042356775888574,0.066225736135651,9.78530387175677,0.665827111694602,-0.0585137886836764,STAND
3.38,-0.0670666559120714,0.0509518982566881,0.0111089284996903,9.7186549909009,-0.583675458957798,-0.767725665074247,0.0165058652199752,0.0268684405734521,0.0172115674575379,9.73792197762193,1.43071017345802,-0.541147455266878,-0.0364044975572779,0.0416254325350852,0.0665564467539861,9.76346537014673,0.692093908843972,-0.0094212332021369,STAND
3.39,-0.0756890014281453,0.0524377210652527,0.0116279027310537,9.77390647894087,-0.584731204565625,-0.714665039501314,0.0174250465816262,0.0500778153420253,0.02035585548284,9.78986083607079,1.56124518885201,-0.511784500159752,-0.0474372495757666,0.0394476503854676,0.0634539245713833,9.8218350408403,0.722864188154053,0.0497484247395548,STAND
3.4,-0.110425234177264,0.0543598294430515,0.006789223574514,9.80311102733044,-0.755494989004409,-0.646260804030549,0.0445591349584523,0.0584265353962339,0.0213560977759549,9.76364614055304,1.65995920940493,-0.486409070793545,-0.0553258276547363,0.0410165392722021,0.0515103033868591,9.83824320811797,0.711688155864502,0.105968396408771,STAND
3.41,-0.136933646519459,0.055699504253307,0.0043787663871484,9.79935657840563,-0.914594688881648,-0.626919118967098,0.0405303417196751,0.0822969194850256,0.0223602265469223,9.86848895143224,1.64406045407063,-0.364447765057579,-0.0571007471314994,0.0474399048250468,0.0443649420614517,9.89596874490569,0.705146403913064,0.127288399957906,STAND
3.42,-0.132564386312039,0.0591783383228664,0.001867475245503,9.76815407498075,-1.01630669390226,-0.563766876030665,0.0007653471514924,0.112784795445578,0.0261718540017699,9.71318425760781,1.67143104768283,-0.473885711579538,-0.0538443770182551,0.0473812772620121,0.0314174499794814,9.84238352572266,0.672673633069949,0.099903014977463,STAND
3.43,-0.129685656681304,0.0613245767096699,0.0013435949882116,9.73690628508919,-1.11805150807264,-0.500611115314854,-0.0015736990400878,0.114836434340168,0.0289382200382628,9.53726854668846,1.72707754784934,-0.662342350815794,-0.0491470383036463,0.0482275294846655,0.0323132072632374,9.88355999648014,0.634551987318972,0.0311810259240525,STAND
3.44,-0.105992207882545,0.082615631909312,-0.0056235418423033,9.74610886742386,-1.24809185627807,-0.617356978915699,-0.0123355037209869,0.105749645543615,0.0299701705330166,9.52000734711645,1.66002874414533,-0.883948195490298,-0.0386187319484387,0.051349603020756,0.0321783448673206,9.84458109096271,0.592258488704845,-0.0477073579535362,STAND
3.45,-0.0806238716468696,0.0894428018817372,-0.0125956198213593,9.66185331481476,-1.23923852396938,-0.551258041691337,-0.0207084499170459,0.107371539745938,0.0366015509931568,9.50284222878837,1.61173812430647,-0.995546531486582,-0.0380732647177336,0.0595719597600552,0.0339189154251948,9.85251357940985,0.566849625854017,-0.035317012858666,STAND
3.46,-0.0268062126011593,0.085965096266645,-0.0156330536400244,9.68907127154135,-1.18052281845297,-0.69464753487045,-0.0093056231789114,0.0884960378825883,0.033473788416547,9.48750571570347,1.50854173383488,-1.03915158586689,-0.0521143656763804,0.0610896197807276,0.036824045377907,9.80104340719391,0.61697688000699,0.118779247176103,STAND
3.47,0.031647516568608,0.0776222739068555,-0.0216251792477836,9.69388171331559,-1.18682221960004,-0.862514046133406,0.025753306587337,0.0661388541173117,0.0318341503310157,9.50607918898344,1.45665330655823,-1.00184875985656,-0.0607195081170592,0.0589537945667216,0.0412767017419013,9.75127200468484,0.665394951782137,0.088596380824837,STAND
3.48,0.0439255938986711,0.0725105108945787,-0.0157033056936915,9.8043809103573,-0.964018445288354,-0.814996451472245,0.0392048586278493,0.0635320355010579,0.0329081017312641,9.66602669129205,1.44221789625202,-1.02578370861696,-0.0565526078945474,0.0536002725117088,0.0432415879670955,9.68496485741168,0.64209295661359,-0.071037047665121,SQUAT_DOWN
3.49,0.0515911584705986,0.0609057282676401,-0.0162243237135061,9.81912994462924,-0.880430090312963,-0.675901542299872,0.0476276217723388,0.0746428980864916,0.0346157822449183,9.73021243434083,1.44598778745922,-0.88545586215863,-0.0622121016586386,0.0638893320587346,0.0343476084577503,9.66343398173625,0.63697874966578,0.0447546683869148,SQUAT_DOWN
3.5,0.0463076075684393,0.0695930103749451,-0.0162229911076584,9.84889482117521,-0.995472502271556,-0.581457150316458,0.0398025849246121,0.0902366273582522,0.0362491926762512,9.80682429122775,1.43539581373059,-0.833100475615941,-0.0842990326629611,0.0797507853086582,0.0263872722036457,9.80928623533277,0.579695802439177,0.151145327081827,SQUAT_DOWN
3.51,0.0435184497090234,0.112032667044246,-0.0206485900258982,9.88688431563929,-0.959705466690503,-0.430328742850282,0.0681484809592777,0.0725301822814873,0.0409567920430067,9.70268021001781,1.35358197049947,-0.634784793719166,-0.0997689730293167,0.100553387919021,0.013746972876985,9.9163575985827,0.523044800196955,0.213825174648271,SQUAT_DOWN
3.52,0.0315484681297914,0.15879551626512,-0.0256058288542426,9.9044762591544,-0.938655496168678,-0.118642543357861,0.0868136287290568,0.0954832786487386,0.0513818914485387,9.83734531709354,1.38374801659908,-0.567762587345695,-0.0915187038754168,0.126089413977473,0.0087189842525834,9.95101296572392,0.479473482629715,0.313481037508517,SQUAT_DOWN
