time,left_angular_velocity_x,left_angular_velocity_y,left_angular_velocity_z,left_linear_acceleration_x,left_linear_acceleration_y,left_linear_acceleration_z,right_angular_velocity_x,right_angular_velocity_y,right_angular_velocity_z,right_linear_acceleration_x,right_linear_acceleration_y,right_linear_acceleration_z,pelvis_angular_velocity_x,pelvis_angular_velocity_y,pelvis_angular_velocity_z,pelvis_linear_acceleration_x,pelvis_linear_acceleration_y,pelvis_linear_acceleration_z,label
0.01,0.15432164500828,0.502814235933178,-0.288177700608647,9.73989966616986,-1.34190622702161,-1.25209577800281,-0.156220475156957,0.622341436875707,0.255691337607798,9.6927859117665,1.69280215271711,-1.48161312065868,-0.0280337312567179,0.37636932622219,0.0622791294930314,9.76902870375517,0.513790930835123,0.601873566585493,SQUAT_DOWN
0.02,0.162999577379589,0.540675180366847,-0.314763260299611,9.77353643249411,-1.2713135621126,-1.08734661245331,-0.128391221757374,0.653191381113914,0.25201897321762,9.64632407730191,1.67174990743695,-1.36876789095926,-0.0387675764891273,0.409687960981125,0.0709161759701467,9.70977024172956,0.429982667152601,0.71972232907604,SQUAT_DOWN
0.03,0.166059803798306,0.583755498635356,-0.335307965337548,9.92458318824103,-1.23811581635545,-0.958603066832632,-0.104557713431769,0.694788005014942,0.253882741953349,9.7029943227219,1.60881372195473,-1.34500286065076,-0.0490852068608895,0.441212119740744,0.0735210384495951,9.63995045936686,0.400805086580891,0.819364744213194,SQUAT_DOWN
0.04,0.169736181327269,0.628965607063191,-0.349450071787163,9.95868319374273,-1.24360165430949,-0.678526786583257,-0.0928003505250472,0.73280470198387,0.250418003578983,9.7251931249938,1.43644033589926,-1.31999056054836,-0.0561017497984797,0.467342315587366,0.0706763513661173,9.62273604022928,0.424956242536795,0.838739380516198,SQUAT_DOWN
0.05,0.175003388814241,0.661802867700621,-0.364013531953599,10.0119476375449,-1.25758328584002,-0.532205281904008,-0.0700557491928504,0.746676250161447,0.247551960763445,9.69847261361929,1.34716271104076,-1.1695643543763,-0.0530548778242529,0.497461703462272,0.0591894159486234,9.61846296674263,0.520957653152522,0.872055349424448,SQUAT_DOWN
0.06,0.160148281184005,0.683556902198512,-0.379570803817937,9.96463171280901,-1.40975528791009,-0.426427945301935,-0.0312343539793838,0.767387135761771,0.246743007778111,9.73994973418477,1.34152455316072,-1.09557217353898,-0.0428475070605496,0.517373424866893,0.0431325418332405,9.58206617060138,0.473284781340495,0.908541658938314,SQUAT_DOWN
0.07,0.165163889886288,0.71046260307468,-0.396532979109916,9.87397190136903,-1.5126296695089,-0.399109399302481,0.0309980756330255,0.800607984643877,0.254929557755093,9.63147030887793,1.31593545733466,-0.960383827041184,-0.040234442714049,0.517183680127469,0.0285413514290334,9.5757271845517,0.403879433991772,0.899601978200383,SQUAT_DOWN
0.08,0.212654396275724,0.748340271619407,-0.419335713124008,9.77603624856619,-1.39658895041517,-0.332407328156173,0.0908687374419058,0.887059538473029,0.273701465548442,9.71742678738996,1.16149963790138,-0.746211947734151,-0.0294378809124903,0.533647700431907,0.0146207873494868,9.57836758988768,0.296853231212133,0.812935680453365,SQUAT_DOWN
0.09,0.26690701807886,0.775026093241662,-0.438030791412081,9.72329681802644,-1.26235616641943,-0.139404346414603,0.136203044224946,0.993916743710594,0.291295813632105,9.7356998861585,1.07704423503131,-0.417387682201168,-0.0219605410370452,0.557639757671545,0.0076803112355286,9.44282136730461,0.270996354371177,0.854488260500751,SQUAT_DOWN
0.1,0.261880152704781,0.827643818361132,-0.45376924850222,9.8443048540954,-1.07083192465104,0.242796932062424,0.167112945766376,1.09513173543447,0.313990206139473,9.62760432026266,1.02339716736923,-0.0105653090606075,-0.0275419802716854,0.599055734836734,0.0054734443362646,9.27681827413063,0.28513937227613,0.843747942433212,SQUAT_DOWN
0.11,0.239943864123156,0.897118511835954,-0.461238506432921,10.0409674792892,-0.856651630749455,0.390383318299286,0.242199969685447,1.13425760220239,0.313975766926039,9.49383906873614,1.11672111426685,0.214765213915946,-0.0201052078433036,0.637167442524114,0.0014294834956999,9.0896677533236,0.283837896843586,0.801768811390379,SQUAT_DOWN
0.12,0.203336666187935,0.948363519571894,-0.46391333490193,9.94128501963293,-0.640451649717931,1.05931405008724,0.356267928614899,1.18094158325968,0.297353873786006,9.82493413508265,1.19522234158002,0.457911843197597,-0.0154251306843124,0.682695686510564,-0.0097506899816504,8.98508022550239,0.301788049027571,0.862293716466472,SQUAT_DOWN
0.13,0.116386512077756,0.970324717188552,-0.469712194636411,9.79706731494485,-0.617756356130637,1.22323739667354,0.444421587262282,1.29556911290004,0.302093629483759,10.0705957320817,1.37081691396322,1.14649317378705,-0.0183613612666679,0.737468399295693,-0.031190593928322,8.85944445178933,0.245605880866357,1.24306843819402,SQUAT_DOWN
0.14,0.0764103594681352,1.02842522321488,-0.468652042633348,9.80240308578063,-0.28199335013959,0.908883277218043,0.489869520966053,1.35898395988341,0.297964194052695,9.67544729448493,1.4035502174034,1.73125622947676,-0.0173358736745279,0.759834535929393,-0.0485170440328184,8.82700178316752,0.269288898562585,0.921509394211227,SQUAT_DOWN
0.15,-0.0308138267951816,1.06194729383647,-0.490960171698508,9.3190860119241,-0.466755465862779,1.37994992912648,0.460286253184648,1.44901784319439,0.311172639293003,9.52767402455742,1.48170301446024,1.74699182370337,0.0063856931165383,0.771038082127758,-0.0630289770532284,8.73794766457735,0.32843532427089,1.0483067376153,SQUAT_DOWN
0.16,-0.154950332475516,1.06474076446012,-0.462660702929695,9.27614779597803,-0.636168827111784,1.88618765116592,0.464703174553472,1.52068556563,0.324616586301978,9.35652606775831,1.62474360938551,1.83794404362145,-0.0050679029393525,0.788599840331534,-0.0568671676645557,8.60549388995075,0.369874116184671,1.0315503630183,SQUAT_DOWN
0.17,-0.257595752872589,1.14418819409153,-0.449610532906582,9.33250974350822,-0.26760470297429,1.63049915359262,0.427111809072145,1.50811251933235,0.315820739725433,8.76003578812449,1.66723851577594,1.40404589298632,-0.0186374919575535,0.8059396131631,-0.0593294841987583,8.35527571526668,0.316062070617302,0.810915410381871,SQUAT_DOWN
0.18,-0.361077458293492,1.25899241544417,-0.438682634589267,9.44863299850044,-0.138656851842534,1.44488003575088,0.272615756397353,1.37806734601402,0.25647286427399,8.82735867676995,1.35682167891532,0.844149355495254,-0.0356148148246769,0.809950071796049,-0.0697860383054975,8.15596812685413,0.225157048485666,0.75282282051037,SQUAT_DOWN
0.19,-0.389065321232306,1.33844478514167,-0.424337555247584,9.41983854143405,-0.257675462632729,1.19756539702468,0.145359994596508,1.27970018020943,0.180237866387336,9.37380639712256,1.32557569302743,0.571790802069069,-0.0698418863576592,0.809942155788191,-0.0776596633604173,8.1185253330514,0.161121509852528,0.955483608674735,SQUAT_DOWN
0.2,-0.23062951110379,1.38028258398655,-0.419984779165423,9.29800193198866,-0.208921539865625,1.23682683855628,0.136226841874425,1.24824390727343,0.159287964647575,9.48333873258307,1.618055425492,0.0721616786148637,-0.115350097094717,0.777227889150713,-0.0755457453345126,8.2343911642551,0.18518922761245,0.804851167097328,SQUAT_DOWN
0.21,-0.0714677507174813,1.34404949224089,-0.392581217220614,9.50143991688872,-0.168501835558629,1.34600769663308,0.158927960754002,1.25333991184134,0.181439359215131,9.13994951967123,1.35143442131135,-0.0346508779082267,-0.0998998011073858,0.749122616474182,-0.0664639584539992,8.47059216133651,0.25227090042827,0.726176278487968,SQUAT_DOWN
0.22,-0.0120393525170183,1.29910647186795,-0.365423151728426,9.43054970795695,-0.405598728401903,1.04800327825926,0.102521237666057,1.21095870580524,0.187470786483217,8.80717329187109,1.11093923766406,0.560096746156365,-0.0695371428845496,0.734161868156948,-0.0467556799938338,8.67352991704652,0.337692816182564,0.848211339416931,SQUAT_DOWN
0.23,-0.0307474014631799,1.24518680199123,-0.34185433347946,9.14234554874076,-0.137574971884479,1.29718609043263,0.0523650267983445,1.15578105990348,0.19567693701989,9.12889135456916,0.674179338229998,1.03474716414345,-0.0825786682818625,0.742436515875202,-0.0184218451688256,8.8104100957703,0.405665660579563,0.842616149686212,SQUAT_DOWN
0.24,-0.212749992731682,1.25509160486998,-0.32408396203272,9.29940197249028,0.609781048586377,1.67085810316324,0.0979348871497446,1.20889229955399,0.195026797915476,9.78551526838724,0.593499841758526,1.1778650463101,-0.0845725075138156,0.767114829591116,-0.0011836397030249,8.93688056843092,0.439499583650729,0.622251288323153,SQUAT_DOWN
0.25,-0.367623373504749,1.26937561071983,-0.316451731954476,9.33533621851837,1.07993210002274,1.78150611805385,0.186519080172025,1.264127393888,0.207763746835843,10.1268157083008,0.750189320600942,1.54075114777324,-0.0060461122352335,0.823627951561111,0.007662644111505,8.88855820930649,0.443368968752021,0.967395503634046,SQUAT_DOWN
0.26,-0.490206347987547,1.34503507201393,-0.314117935613801,9.53047819687072,1.05307762411423,2.29474962213348,0.230475202693914,1.38331793280872,0.228186590190041,10.4626490152899,1.28202394712249,1.78093193366543,0.0297457502805035,0.866614194816214,-0.0108557333314018,8.62375772659562,0.337595141206632,1.53552313132189,SQUAT_DOWN
0.27,-0.525807049899359,1.40760806137884,-0.29412747644794,9.49385396988023,0.76733347108666,2.32106853797459,0.104347180893034,1.52606665635091,0.266203529946154,9.89532380646994,1.38697176966785,1.80378129815455,0.0674205698218185,0.832532789382612,-0.0479565750973929,8.31512458695265,0.364213470096933,1.20083526168894,SQUAT_DOWN
0.28,-0.478940844307124,1.44156948235791,-0.311552980476547,9.40879490675362,-0.247022985694836,2.62282163762288,0.008795743813154,1.39667174672265,0.227655949812023,8.52645378676399,1.12855390609287,1.88277406386214,0.133586622571679,0.809381976220053,-0.0888171586803246,8.03265661619327,0.52004718905131,1.22928504035534,SQUAT_DOWN
0.29,-0.348888020671751,1.50195548029511,-0.346789222019386,9.5863775519439,-1.14051787795423,2.75331113832929,0.0101549956938645,1.20875772705353,0.147974169074026,8.40495137326126,0.763684404873733,1.94263324085292,0.154137786142183,0.771682060125772,-0.116964751581531,7.83486849478627,0.636016579589931,1.14684809221539,SQUAT_DOWN
0.3,-0.0199371848888153,1.49439422294621,-0.372091165367618,9.49710281422199,-2.2964374324269,2.14000573747847,-0.0550659154198379,1.20925942498698,0.118512118676951,8.89643106930935,0.349076905544208,2.45668518281922,0.182977507507278,0.720544639590596,-0.108807413024273,7.91577468525376,0.879626408700753,1.08828175697557,SQUAT_DOWN
0.31,0.38240335052109,1.44455328788588,-0.440551637620139,9.02711277192695,-2.5773407300839,2.85688317146432,-0.101142632655169,1.274692204775,0.0999028051248732,9.35425839642895,-0.349159741284058,2.52816565110403,0.112678095490693,0.724240962960657,-0.0527297560320484,8.02940681726426,0.878693524000473,0.95747932951698,SQUAT_DOWN
0.32,0.648795430602008,1.33226778025904,-0.472027475211313,9.06809727607453,-2.08356366721908,3.04756705266038,0.0463036740906981,1.32580005851707,0.108295435351556,9.47954597383474,-1.49314417544751,2.56288430007635,0.0246070375648083,0.773143695371663,-0.0047710370176757,8.15121215578667,0.71563035262061,1.1356457233377,SQUAT_DOWN
0.33,0.790367460110038,1.22189564517147,-0.505121691399401,9.13328644881277,-0.518162424816345,2.25492702136241,0.32579036733244,1.35843075467446,0.0998089415704231,9.27566863749968,-2.69165534622577,2.05552850145389,-0.0836243949375444,0.818390079022306,0.0150003985992602,8.17130123494142,0.544021372414417,1.5447318351679,SQUAT_DOWN
0.34,0.831830724842234,1.25905788155717,-0.541206186207822,9.22819852098192,1.70651741522088,2.07608787837971,0.600196777610071,1.47526070074817,0.10918740064317,9.3766872238113,-2.97410514750002,2.07742557320725,-0.147840627571081,0.819107527849019,0.0025818920147321,8.14936914087451,0.639139893508608,1.37568391062446,SQUAT_DOWN
0.35,0.774226414724166,1.31156092316363,-0.518880308081121,9.1003248299678,3.01905801217987,1.5107071669232,0.768242676969066,1.51237690788145,0.113980137599749,9.02557280708319,-2.29587275086569,2.30662928284715,-0.147840627571081,0.819107527849019,0.0025818920147321,8.14936914087451,0.639139893508608,1.37568391062446,SQUAT_DOWN
0.36,0.495661755272925,1.39329467297275,-0.454243163732902,9.31880815329131,3.63833629145562,1.20243885406324,0.831198765488078,1.5431779063539,0.0951566495391733,8.58291471412788,-1.44968952923641,2.51364273137847,-0.135138170736653,0.826038081642929,-0.018138062250206,8.09198166237594,0.784178486913786,1.49554503792367,SQUAT_DOWN
0.37,0.0821683326010671,1.4808782764101,-0.38287487286921,9.05505084068361,2.96466862499094,1.75082275077718,0.76745432271587,1.60549473086078,0.0734227293612207,8.70884319428503,-0.131259702035897,3.20403778585962,-0.113393138815471,0.844670440455925,-0.0542620186816698,7.9625867239302,0.851868872135823,1.43295324526987,SQUAT_DOWN
0.38,-0.187733120929508,1.5223951424965,-0.334165130820681,8.66306448413204,2.05181183910861,2.38834242384277,0.59471324494777,1.62379877768645,0.0321386960486636,8.91303146676359,0.703504602493443,4.03691581302752,-0.0852547902994155,0.880417722772041,-0.114232932162736,7.81798849301212,0.779466627795119,2.01573769432571,SQUAT_DOWN
0.39,-0.234918078416454,1.52812784541051,-0.313905979007019,8.50262911805803,1.28424235053624,3.16917615608276,0.389066349776762,1.60584306366655,-0.0178726589304046,8.70997084067243,1.59328395784447,3.9438445333131,-0.103008186157406,0.875549756252457,-0.172303918657965,8.07503609227435,0.424444587827696,2.63645809303996,SQUAT_DOWN
0.4,-0.249569693903449,1.42648195223302,-0.313094742143799,8.76133006002642,1.08216241822329,3.49347730462571,0.281954336608698,1.52157037546504,-0.0226176949096232,8.49029369757755,1.72329156973013,3.51439492878283,-0.0761944689666898,0.811219184308508,-0.168318628650779,8.46023086229319,0.42543203860382,2.28063289024426,SQUAT_DOWN
0.41,-0.211755012912955,1.33617483390477,-0.318331734976869,9.08544819046327,1.01507555292814,3.17219924977241,0.226074462481905,1.41796016321454,0.0238704985180635,8.51285733122025,1.03780607614728,3.31023732683517,-0.0761944689666898,0.811219184308508,-0.168318628650779,8.46023086229319,0.42543203860382,2.28063289024426,SQUAT_DOWN
0.42,-0.179311452222659,1.33555931304411,-0.311543013288191,9.32920711720806,0.0834909696025624,3.16977018300385,0.0863514359328328,1.37598515112708,0.0768922010011452,8.80087116497546,0.910927339843386,3.12839674526394,-0.0267209771662849,0.738250544416198,-0.140732706393514,8.76079330362489,0.570372199080421,1.89522731048421,SQUAT_DOWN
0.43,-0.120843265362308,1.34863655060265,-0.287589419016199,9.07904881226028,-0.101725679566722,3.27439280715281,-0.0702454286549056,1.36798476777938,0.100792667476876,9.14270336449625,1.34934907400929,3.29053139171042,-0.0181225253227597,0.728571717408749,-0.107866624055302,8.95367283188613,0.757885703663047,1.96088500554897,SQUAT_DOWN
0.44,-0.0447888955029749,1.34901761855195,-0.254921844454007,8.7808853769333,0.57803485674333,3.49708204644232,-0.132652097472154,1.33696088806544,0.0803957494868415,9.13229911641514,1.55032994012266,3.30545808251954,-0.025314686015026,0.750024301367042,-0.0826390894039612,8.89789470760962,0.655430332064271,2.21435394095629,SQUAT_DOWN
0.45,-0.0093227521562575,1.32242573882777,-0.220579235487711,8.88135685772454,0.745497483662035,3.61086705910755,-0.144473117015607,1.33822545575462,0.0680650643400922,9.01686623299466,1.09359525815117,3.7180542416783,-0.0282084367235446,0.756631322143466,-0.0704374466186637,8.7274379541003,0.659891348332913,2.24955359311924,SQUAT_DOWN
0.46,-0.0232608966298264,1.29621193612519,-0.215719754518247,8.97151102228565,0.595204278165699,3.73953414406749,-0.158364529730832,1.38645862013785,0.0636754577100123,9.10390359119222,0.452965470888009,3.88000032892699,-0.0072200003901587,0.756029271392617,-0.0617376349241787,8.67459334936884,0.741365508610109,2.56363886716851,SQUAT_DOWN
0.47,0.0321991786665953,1.27387997095645,-0.207229480066518,8.6160211376838,0.280381324896333,4.15392213212977,-0.176344846626321,1.4790450699516,0.0454199736854625,9.41174851028814,0.0004152601255798,3.31625169400509,-0.0022082846688432,0.728844304627002,-0.0559249577646866,8.60645583893057,0.740138436909428,2.9137649777255,SQUAT_DOWN
0.48,0.107822662616958,1.22181978055536,-0.202089676922988,8.21204292331217,0.502799685703637,4.5382689794462,-0.193801543348147,1.53186354551953,0.0364243945301002,9.23351297235684,-0.628818351886165,3.76515608898687,-0.0150433318628502,0.667887504728643,-0.0480594647694859,8.61317987721064,0.767988903545285,2.73492785203005,SQUAT_DOWN
0.49,0.188723289031598,1.22931471798962,-0.190222272229435,8.3962656020433,0.691117506051871,4.43609733627243,-0.0845100452186288,1.47385915609925,0.0190566715180208,8.5956854983274,-0.707819007881036,4.29100459035281,-0.0151748491433524,0.632628737152936,-0.0502320137767529,8.6705999626485,0.754719027440084,2.95086159167684,SQUAT_DOWN
0.5,0.254354922377736,1.20626955108118,-0.174383069258372,8.30416639774676,0.819054613878065,4.34405939020299,0.0483672898931039,1.3762695194306,-0.0047665414444991,8.04962002977403,-0.214249889519713,4.41239399363369,-0.0162836833633954,0.638828027137104,-0.0492341898931313,8.52327120064826,0.690117730751681,3.14765560838494,SQUAT_DOWN
0.51,0.279341237262372,1.1819586179803,-0.167909318725929,8.0987901198968,1.40166030941285,4.25877312194536,0.0947642582959779,1.32045874373359,0.0039876026809157,7.75225077879962,-0.157005774838527,4.63191740846161,0.0110944325617399,0.628654703705481,-0.0417363734843538,8.50388548349884,0.785561287676301,2.89580891499349,SQUAT_DOWN
0.52,0.234344628388953,1.16237883292255,-0.178621145904189,8.11711370529741,2.06797826917009,4.23130429016519,0.0158364157401548,1.35749730720738,0.0074508206037266,7.8127322106171,0.256136137368738,4.79069645980765,0.038881327928813,0.631062623517989,-0.0361816784367465,8.81478973157266,0.957393664287941,3.18768073534,SQUAT_DOWN
0.53,0.147907151169781,1.17790647110619,-0.205402904100714,7.90755186990186,2.36264584930643,4.26614568978979,-0.0720746744524307,1.3229000284326,-0.028157819976797,7.65720242361152,0.177919075457872,4.75036764435315,0.0684327903944237,0.601595308577461,-0.0178006874625269,8.77047476621446,0.978851139837076,3.28716324578904,SQUAT_DOWN
0.54,0.0719478717454916,1.16490930622397,-0.232395751107284,7.77548485709153,2.42650269459037,4.58129100340953,-0.112052661699325,1.24482136084824,-0.0535312630546878,7.71298660795959,-0.452221771627086,4.95604093933559,0.0797262473881525,0.57043942286561,-0.0032220936277258,8.78568253861637,0.842520261492211,3.04355641199952,SQUAT_DOWN
0.55,0.0036684799615781,1.14899421974811,-0.238237351245869,7.80174291731976,2.42779765365211,4.80179721004439,-0.128488420797254,1.22659706869035,-0.0550993523191141,7.9267835903545,-0.367769080299824,4.98017678794253,0.0778139398988588,0.560153603634074,-0.0076013520220578,8.67513763528771,0.604725317195341,3.1996252698017,SQUAT_DOWN
0.56,-0.0525963229260023,1.13276185792433,-0.240621130440118,7.9677136006775,2.27358636644276,4.9792732108405,-0.183883265987764,1.26367030683029,-0.0133098405420852,8.14745435907303,-0.336318668207766,4.67140821311749,0.0569665167372337,0.534030391849615,-0.0094504957360121,8.58783209504805,0.489008102670172,3.35919526124617,SQUAT_DOWN
0.57,-0.071396089733488,1.15545430887451,-0.230249291641482,8.09586451329562,1.70169649326358,5.24718509478878,-0.245702868491702,1.33366922991662,0.0531957719204039,8.3798736048183,-0.381426362493384,4.69777452572284,0.064591377123469,0.513527133774389,-0.0102275902951743,8.43412740831352,0.590233832978397,3.23685947032828,SQUAT_DOWN
0.58,-0.0944535309363967,1.14251652335327,-0.188276839811879,8.03972219127301,1.05416677810179,5.23755575001888,-0.240051441602447,1.38283840668372,0.102830013536161,8.28212062929899,0.0669141418500157,4.93527729087246,0.0875280554780694,0.51295621491642,-0.0302314557509731,8.25280577204649,0.812470133742379,3.37984479807908,SQUAT_DOWN
0.59,-0.0850386866801657,1.10198852388414,-0.153632349387089,7.70827921477755,0.733431078271656,5.15228583124859,-0.18712843469288,1.33866216272594,0.141061516714227,7.99532719410965,0.250044656532466,5.38493197877882,0.0665625408052547,0.488701073284049,-0.0533852323559108,8.14259069356957,1.00753992384163,3.62564992101838,SQUAT_DOWN
0.6,-0.0376892122061294,1.07974551332065,-0.146850383377335,7.47229461086858,0.823086902862347,5.32326793641342,-0.136125123989284,1.2884219019379,0.153331351361917,7.84876676127358,0.336898822936582,5.65383976413561,0.0314580873966992,0.45934105201352,-0.0722598935240024,8.3178099013771,1.21906097919762,3.80218701919398,SQUAT_DOWN
0.61,0.0437710215697673,1.06616223301386,-0.171091688584446,7.3470788909937,0.888730107416653,5.22572254835959,-0.134071582041951,1.27021267688056,0.124907904275518,7.90109895268105,0.334957685034156,5.49197913202308,-0.0012309154131678,0.432086727093208,-0.0799822752249384,8.47195341862057,1.28258787775092,4.09149069136937,SQUAT_DOWN
0.62,0.0956662299100668,1.0554341261937,-0.220350929286567,7.3372787724188,1.16139118434788,5.28811886607429,-0.0969546293949289,1.26894658554324,0.0634012165423432,7.9349803411612,0.475281106296587,5.28050639708303,-0.0007214789013569,0.418478540188634,-0.0778116783691897,8.69597696623081,1.19834082822996,4.22657162518082,SQUAT_DOWN
0.63,0.114733912457606,1.04174644395372,-0.275676623365033,7.66691266582272,1.29858532577394,5.37737126385915,-0.0590867352355831,1.24701194671671,-0.0135958178878829,7.90216288924105,0.688779033141453,5.25549689019515,0.0463801662888514,0.424139638294862,-0.0744582236062518,8.79270309678738,1.16054593821845,4.43054348261346,SQUAT_DOWN
0.64,0.106191779251968,1.02664830194258,-0.299337291025897,7.72239478688511,1.51251738846742,5.56318152249163,-0.0525146546616687,1.24428592465322,-0.0628253405531648,7.91182013841629,0.70649792890838,5.45971996750243,0.0738227955494263,0.348313700278332,-0.0742503810350692,8.67924726545122,1.10227168448967,4.23075922156175,SQUAT_DOWN
0.65,0.031681254313352,0.992599685843673,-0.307305103117712,7.41189236849664,1.82351494622194,5.77479280188236,-0.0773821296749223,1.24560023674211,-0.0817766421599501,7.93143454695555,0.930315123383173,5.52095219146792,0.0185549585021591,0.261549388446415,-0.0778570457986408,8.90574541264415,1.00856709398667,3.83623679957239,SQUAT_DOWN
0.66,-0.0279324248402586,0.973035540288563,-0.294443309059129,7.51819621967332,1.84143770362503,5.75897944569104,-0.148292095474951,1.24674206417347,-0.0687328115382682,7.98109150687783,1.26034182419457,5.46830838791688,-0.0299794665904634,0.266981999242932,-0.0854637622654995,9.07409526892963,0.862053855907788,3.81430698654454,SQUAT_DOWN
0.67,-0.067912768216501,0.988017412367107,-0.274979545510028,7.75647332419042,1.36393909419448,5.88686497534602,-0.183604355053346,1.24866164198473,-0.0468601137406926,7.95515270562782,1.45892401342835,5.71098765313424,-0.0769595278589146,0.283277857057197,-0.0885072159508543,9.12131513412106,0.693449162776369,3.70117620347007,SQUAT_DOWN
0.68,-0.0935762767902934,0.963589359245729,-0.254450814544453,7.93551761430695,1.34081982478215,5.732468118462,-0.222576796602165,1.24821490648636,-0.007853241115062,7.76618910932984,1.40685492510647,5.76952117158165,-0.0988105339212896,0.281665447413025,-0.0779673296076725,8.98139340488988,0.616587584627155,4.14048025057062,SQUAT_DOWN
0.69,-0.133003995498325,0.956157604077644,-0.235839795420963,7.89742040845458,1.19833338567588,5.85753765849892,-0.248532097459815,1.23586593452239,0.0288427098135047,7.50044940350987,1.17621979985657,6.08272028326214,-0.119183172564103,0.278924783385307,-0.0687745701026462,9.06765712841748,0.860206651308339,4.40410839530027,SQUAT_DOWN
0.7,-0.144286699460051,0.965747403633835,-0.225853851088982,7.76407804205033,1.34181683393938,5.65121111216868,-0.258818304175611,1.19981351337044,0.0408636386881014,7.38454002860362,0.698898087151926,6.57051340175195,-0.124122192161298,0.28604489386668,-0.0662924306263034,9.18769040541577,1.15132675303208,4.54990704209329,SQUAT_DOWN
0.71,-0.152727155114326,0.975143094257428,-0.208727786149692,7.73881251108255,1.55637965996468,5.89891239942977,-0.243639058947155,1.14279595970413,0.0336529467994482,7.27559675982755,0.23360665374841,6.67845117767014,-0.130276436753626,0.284609003866303,-0.0688912713191651,9.23523149756229,1.42324685909473,4.57811875514891,SQUAT_DOWN
0.72,-0.187005517140831,0.993128965183029,-0.209208618854925,7.75740463995715,1.43500599546772,6.2414514235755,-0.206267339431316,1.10947455193342,-0.0100475400575808,7.15122581225694,0.102955667841212,6.62031523959522,-0.145630722300058,0.278733233999844,-0.054986369563469,9.25799872018389,1.60059086133279,4.69617508397942,SQUAT_DOWN
0.73,-0.175887495049943,0.958594122361582,-0.217059971265116,7.87066771659434,1.68214766948605,6.20821327306087,-0.129420007279654,1.0843882368732,-0.0469537279696896,7.03238316074761,0.0653742010796987,6.70732334385155,-0.150709840080914,0.261367940918064,-0.0365665736344885,9.15917504980899,1.54592802533889,4.8664070362727,SQUAT_DOWN
0.74,-0.141227204320764,0.974905268750631,-0.23707368076661,7.81460597625653,1.16597552501564,5.99768156121957,-0.105861230652402,1.07620857023888,-0.0897658061917922,6.74101332894412,-0.201212589891514,6.611196773139,-0.168947263563643,0.236740666251307,-0.0283150300681391,9.11292313414382,1.30134829994802,5.07218607804829,SQUAT
0.75,-0.0521083281570248,0.983240892969349,-0.254835179142403,7.40846743786371,0.943000858179931,6.50042839707578,-0.0630767871914553,1.06235466994887,-0.126399337193436,6.77264700251098,-0.0825595975825415,6.7205671514063,-0.259363976669988,0.137301476918217,-0.0354998984027883,9.30177093476865,0.727858691710966,4.76886189031114,SQUAT
0.76,0.0008941204597441,0.915670487741866,-0.277890223749338,7.08737167271459,1.76622804865196,6.75295570603099,-0.029786300044667,1.06034565382911,-0.13070881090483,6.81548507236171,0.0179557037673957,6.98717466594986,-0.268891524007092,0.137841586088614,-0.0549398715578926,9.53734267436091,0.292376039315937,4.61203202824566,SQUAT
0.77,-0.0021974963495309,0.856493801936825,-0.280944321062695,7.26190650734776,1.71126719589755,6.69755259120041,-0.0237613367166837,1.03522662502208,-0.125138335830022,7.0946712246227,0.475585803150854,7.04797271013083,-0.21664820113805,0.189451350293598,-0.0770603032595576,9.53185394611796,0.0859871501440045,4.31011422061056,SQUAT
0.78,-0.0470659398513421,0.852625687768667,-0.266579155114397,7.54570160067552,1.26186630994847,6.48096573492069,-0.0328562035289446,1.04449575148629,-0.0983715105678224,7.52653936014821,0.79725672947437,7.05238350320624,-0.153893005434561,0.215446630535643,-0.091284266578948,9.28881006385198,0.172464160854788,4.1305971377432,SQUAT
0.79,-0.057741975135517,0.858580181889974,-0.23739971818286,7.49335355102959,1.06408109767189,6.26270808388267,-0.0734291436554469,1.0634295764285,-0.0790801995343836,7.5002931514056,1.02578924796668,7.61481036738857,-0.148272827279412,0.210273526511643,-0.0988918786815828,9.40825211545124,0.459463771245036,4.40151205660985,SQUAT
0.8,-0.0424105937234733,0.879824656728468,-0.227831558221265,7.51359906431965,0.729828423121147,6.43513661115043,-0.136161695796813,1.05080394376117,-0.0547863302799663,7.4783194508434,0.975722291238342,7.50669943388533,-0.0964079196793519,0.217099773254873,-0.0982416823670578,9.46485874273933,0.676014956199139,4.35899462283093,SQUAT
0.81,-0.0593655168898761,0.865968646166194,-0.224066237450151,7.56226765133252,0.217498007956894,6.65480819141041,-0.135289316894323,0.99340341494208,-0.0601163713060632,7.0406634321628,0.655601996645282,7.32796564525172,-0.0220990101490566,0.192355077916446,-0.0854451011178628,9.40565974447264,0.856744033077328,4.50011187823317,SQUAT
0.82,-0.0497657895093319,0.798582083617167,-0.208997086012709,7.48055868031057,0.332812957196377,6.98421082898523,-0.13154097647026,0.937627182756567,-0.0745490668858491,6.63116061268109,0.20585351877651,7.29983935021006,0.0139882266452579,0.217626448996992,-0.0651117165858269,9.35917465211544,1.05593019751768,4.87632890061373,SQUAT
0.83,-0.0338203991957897,0.816165010182436,-0.194352571076575,7.68619720097179,0.729755723101824,7.02695877972262,-0.0856013052330765,0.906450210517478,-0.077522036615517,6.49189691065186,-0.262786746161013,7.34259258263602,0.0304529130349635,0.205625724080455,-0.038485526168905,9.39238165165922,1.19018305296294,5.08359360378086,SQUAT
0.84,-0.0619379344473662,0.815246818170733,-0.165087440117678,7.5877317308492,0.842963107688902,7.28755915817009,-0.0484212476352938,0.913095095632177,-0.0821749343429728,6.22113329004408,-0.372569365406875,7.37745855774871,0.0488982656387543,0.187447463924448,0.0011882911215305,9.47002438653093,1.1085811999693,5.12363041864045,SQUAT
0.85,-0.0712245734406364,0.825134809901276,-0.139899436624059,7.42208241621381,0.764432638054756,7.11905369930959,0.0237405850589443,0.90537782297898,-0.100238882926491,6.03716676899092,-0.264232378046625,7.42899331505301,0.0600111692756843,0.168032717605415,0.0251478376578515,9.53021778945473,0.87056862106456,5.17988887830574,SQUAT
0.86,-0.04590648437584,0.843284120075678,-0.110184728449145,7.29644803193592,1.10844091670405,7.2960874531508,0.0859264386738453,0.906321188730313,-0.122562185322296,5.83053044612316,-0.0018816092188087,7.59056656346159,0.0949315255173382,0.154680795214669,0.0213220579616653,9.62406650017312,0.565555709075235,5.08928586173284,SQUAT
0.87,-0.0654257012902601,0.779927410765734,-0.0845760843572916,6.88738514286477,1.1214842107338,7.70697060842904,0.12554706466284,0.873538737887432,-0.137373949192064,5.84905176626614,0.243430606828998,7.88745933032487,0.11301033985525,0.143554641477812,-0.0031253480837261,9.5130205493953,0.304131822809022,4.87084363216236,SQUAT
0.88,-0.0615493196008029,0.736845323284676,-0.0667299313680222,6.59780161340468,1.00136600671947,7.57397256050223,0.122953351613355,0.808193820684144,-0.134123332878112,5.90456778447543,0.566277069430632,8.06447942564902,0.129635016411125,0.147710055835373,-0.0402624849741391,9.38647883891932,0.171567127839515,5.07802820713286,SQUAT
0.89,-0.0421750129756478,0.714831781164701,-0.0626083786068429,6.45756440670516,0.906597709882372,7.68133914198037,0.033843964267316,0.756316251048315,-0.114297160713945,5.99114275498204,0.576461741532848,7.8986000096095,0.127135854429849,0.176212186785545,-0.0673995142793086,9.31177504511095,0.201149455991094,4.81887858594868,SQUAT
0.9,-0.0141490716428007,0.696008716022267,-0.0565660050297287,6.43392683162387,0.871545755498716,7.67181852993297,-0.0406089614390713,0.731757086089979,-0.0741038319031003,6.05832748058651,0.102315551263951,8.08183759200861,0.133488430390909,0.17114024140069,-0.076717954407591,9.29922618216746,0.253560049867211,5.09471894663415,SQUAT
0.91,0.0131244970061247,0.679492820170164,-0.0587383056479826,6.67769161198898,1.10188501030888,7.4860626710158,-0.075254517950805,0.694588153831366,-0.0252093054849122,6.07686926614762,-0.0772760291335694,8.25203322914737,0.133889713811141,0.195309299187291,-0.0866480471999272,9.23259089058764,0.495020003835684,5.33254500182207,SQUAT
0.92,0.0292471711464497,0.705936728861983,-0.0638949666342323,6.74455760256047,1.34886687139537,7.55997669426304,-0.0761549693348607,0.667384222336154,0.0032231860557162,6.14166369015404,-0.193612522780078,8.19305719172873,0.16716710079191,0.162910271874856,-0.0824468506740269,9.29162846910018,0.782442225083809,5.13792349318317,SQUAT
0.93,0.0297314738188363,0.716924551791162,-0.0631349801530222,6.64012761345422,1.3133768732048,7.41997974736854,-0.0341389338185179,0.661282163433017,0.0154434648466147,6.15290972566981,-0.301832659638509,8.34515115341689,0.181084128638615,0.135276332403351,-0.0681306779002351,9.29791579367158,1.13003228993198,4.90610538539559,SQUAT
0.94,0.0336983435614239,0.711190473020483,-0.0711061793820039,6.6661733807615,1.2240072946263,7.4264831962375,-0.0082067059352255,0.678056545502555,0.0215527746574555,5.92723903709524,-0.261903188374661,8.4176350328357,0.176171120535206,0.138082391567603,-0.0472866775186164,9.30561197855441,1.39788158524856,5.01014026420177,SQUAT
0.95,0.0444055366604811,0.689687535650098,-0.0747106696572529,6.52072634792194,1.28976789865249,7.68540156098887,0.0145581906140553,0.680473565437688,0.0163931657411904,5.65987293683168,-0.316723676117358,8.3215056545354,0.18305434181308,0.144798996796357,-0.0265895011561458,9.25269845142015,1.51559045942079,5.22788675699907,SQUAT
0.96,0.0565097099772922,0.650585729477312,-0.0677142107099287,6.44309002638224,1.313075735159,7.74684012038415,0.0596938397843744,0.636251219317107,0.0058044484672947,5.4133375126276,-0.342470966412648,8.50935956814678,0.197495244306703,0.113587359732617,-0.0110335643426925,9.23283855989032,1.41320807800925,5.30102692500899,SQUAT
0.97,0.0655321158257282,0.628440611138195,-0.0534141149595863,6.28752696557092,1.7566853996854,7.81184580308382,0.117243225357194,0.58470125566019,-0.0097065049197031,5.71398687458655,-0.0705928682182104,8.4084431798874,0.187609522652867,0.108891982645132,-0.0035457856964362,9.30255685880472,1.31483005152958,5.22276535017668,SQUAT
0.98,0.0323413018453558,0.631644951657635,-0.048126605541116,6.22572833964814,1.75560183689661,7.9716918932338,0.138304653832735,0.581306586840559,-0.0099555943530688,5.86419368755443,0.27374928828868,8.08934764829634,0.183352851833115,0.0798708716877964,-0.0095024157751177,9.3367596530057,1.18268367264415,5.29975308621375,SQUAT
0.99,-0.0059921875979531,0.588278056105153,-0.0427646499852337,5.88447197395491,1.56979619107883,8.05063348402026,0.141717872243973,0.585535997891617,-0.0015458096084389,5.70819303422441,0.439942024354708,8.04926755743279,0.163879468947732,0.0785286289117001,-0.0068820690429355,9.50278108954186,1.04842182621479,5.13170858631939,SQUAT
1.0,-0.0065915086974872,0.556691918364102,-0.0413771145361179,5.81301013801382,1.4550638583111,7.94587919175743,0.138294049736546,0.576449088422684,0.0172527703373108,5.63419841972177,0.500345098672344,8.31152906809907,0.144336585776185,0.0899453153977304,-0.0051699645895487,9.41416477437981,1.05488136311717,5.16358875251126,SQUAT
1.01,0.0142866440394107,0.538290483259578,-0.041793075062258,5.89963994390959,1.62643815578786,7.95924520463582,0.124631123553736,0.536721881098233,0.0437502890876911,5.49199931140618,0.423876470856119,8.53310586439352,0.108325690612344,0.0766295217456453,-0.0001773372214941,9.48214353569288,1.11714109760096,5.01556023796965,SQUAT
1.02,0.01233517552776,0.527653699621946,-0.052358766738784,5.78044159234655,1.91740980323338,8.04493402127246,0.115555919859661,0.491189820453489,0.0510892321508251,5.53248524387312,0.252104201483136,8.64197004213994,0.102837781189071,0.0540521776176241,-0.0014596853339291,9.33085149968387,1.24114955882637,5.07854042093681,SQUAT
1.03,-0.0248418298105445,0.484351513919558,-0.0500755526582816,5.69348058585732,2.05888605481416,8.23079508714977,0.103297130913685,0.485324671771699,0.0595398669496132,5.4644418704749,0.250834693382744,8.51080668699474,0.0969947554174009,0.041912046913922,-0.0032424085802255,9.27619143366975,1.39275321936031,5.22520798317856,SQUAT
1.04,-0.055020272521967,0.465482322341913,-0.0409193695251807,5.68958588912195,2.02158166358555,8.20645379172079,0.119077773726978,0.489504767788374,0.0611881042976568,5.23531123836847,0.344961028099839,8.58524558194972,0.0891774720469939,0.0299675391390341,-0.0059065748017723,9.19390559828326,1.49153778480111,5.27294685730194,SQUAT
1.05,-0.0707374659504072,0.442594319696695,-0.0278679500129374,5.50501207932803,1.84202313476372,8.26617315164961,0.119947918059541,0.477422930695631,0.0486955248453508,5.04500377883213,0.5653964040388,8.62975885411406,0.079913260352158,0.0305025499486279,-0.0057158831902526,9.22755942024998,1.5196981737291,5.27614627008556,SQUAT
1.06,-0.076194146667112,0.42108716329582,-0.023946623797142,5.36369894146209,1.57276795983817,8.28818504105443,0.112404743809043,0.454916113659149,0.0409418625639313,4.87415623482556,0.953201003887885,8.76171086272458,0.0685862722287352,0.0198657689769295,-0.0080061014228825,9.23757368611409,1.5109247266989,5.22017621061851,SQUAT
1.07,-0.0592320019170904,0.387364957339862,-0.018520311856051,5.36171601000865,1.42191057785492,8.20628534069296,0.0862838979448196,0.402884664827443,0.0230752041856497,4.64266741251269,1.36842147794225,8.59989755721895,0.0711049079548983,0.0160760569026684,-0.006005491884765,9.25235498045589,1.43965350700086,5.22076308374386,SQUAT
1.08,-0.0415780271460852,0.363219301822262,-0.0236983506208296,5.39895084036934,1.55869057572557,8.21219460413169,0.0362868800090999,0.363605442868634,0.0198994530561718,4.54003957118807,1.2975670451522,8.63068346485077,0.0854283280998707,0.013134584238154,-0.0078479329592655,9.21421344798229,1.37345946950891,5.20928245042416,SQUAT
1.09,-0.0325101477578527,0.365789085406757,-0.0265390159516216,5.43632939329372,1.69646441804731,8.25234600054103,0.0070567554680129,0.336131351004597,0.0184888162568801,4.74506309363093,1.14557176424797,8.87794404886986,0.106714966263021,0.0203425824315867,-0.011407378159881,9.15088298632749,1.3266968089903,5.11548019323174,SQUAT
1.1,-0.0276795500072461,0.351462636018558,-0.0225839915030563,5.57108965777146,1.34115576912079,8.30684482660378,-0.0298359554860506,0.325719802541136,0.017649725641614,4.95443141022014,0.858457524271239,8.80913870803525,0.112591551836945,0.0325554938560454,-0.0097928665661329,9.18073233646616,1.29984486101653,4.91148496285882,SQUAT
1.11,-0.0075963951715019,0.328521263118341,-0.0179684711196334,5.52548918437775,0.928477405712872,8.3384395719861,-0.0544388350496209,0.317277899587202,0.0117586733585453,5.17608774860065,0.567998766918574,8.93179596233471,0.0955992003826437,0.0514799753527217,-0.0044405911954928,9.05988886954091,1.30448895063379,4.9425056925202,SQUAT
1.12,0.0477819375279762,0.297187804314655,-0.0039569137620645,5.44416862158348,0.769868363858093,8.2658746391202,-0.0357701167411976,0.27206776938927,0.0074475203369465,5.12850589330738,0.668548209843561,9.02718101961689,0.0598791196006417,0.0466177195184055,0.0075436980505485,9.21886158490374,1.2249094426704,5.19690082991395,SQUAT
1.13,0.0714993450610265,0.283007430310176,-0.0121525545808097,5.81453275253421,0.959473799049837,8.17462451570284,-0.0247654324886662,0.22001438638524,-0.0147075841270718,5.11083789663541,0.79188382685549,8.96520828400737,0.0492913260818271,0.0371775440242747,0.0162444746692318,9.34903820434088,1.26184821654345,5.1244639028868,SQUAT
1.14,0.0843354530200495,0.282469102401403,-0.0101245770140738,5.85290607240013,1.15741920252125,8.2286881117421,-0.0108940689776606,0.181576052879089,-0.0195294093657665,5.15786107631504,0.564163566034957,8.83656678450308,0.0393762333988327,0.0227322230706243,0.028688012378765,9.35146717865611,1.43633139578963,5.12742568577951,SQUAT
1.15,0.0694276784469035,0.275029185773304,-0.0191279535434612,5.80776123111584,1.20853090929061,8.27816815651659,0.0214212666924807,0.144865437220004,-0.0256912843158502,5.46354477532864,0.1224110619855,8.83641905981428,0.0324023893330968,0.0054223281424749,0.0453092003455258,9.42615733139822,1.41919563829565,5.18896264892453,SQUAT
1.16,0.0619828817058923,0.288811942471322,-0.0365686040494048,5.76852171236719,1.26515571156755,8.5526310887103,0.0539604166302251,0.146563372004284,-0.0230535724653336,5.74482738888205,-0.0844466412831952,8.65095888672123,0.0292539780228581,-0.0057265942229158,0.0554778555545575,9.49237541030998,1.30460592770434,5.35403789337931,SQUAT
1.17,0.0490682618364956,0.249962999337929,-0.033963901498876,5.51204182431792,1.51445877348168,8.66281490373316,0.0513618579978969,0.170965260319414,-0.0258081270487254,5.70306889209554,0.0020759990219981,8.41138518967077,0.0406157620152676,-0.0109451727458042,0.0551137954744741,9.54396227610881,1.1843585198855,5.18220689060895,SQUAT
1.18,0.0140247475838461,0.218660498630787,-0.0198978014832543,5.52885780952434,1.61526327001329,8.53933006235854,0.0549260968924839,0.172888265143117,-0.0153504696552127,5.4590807318754,0.488221598807519,8.44865622306806,0.0494316891436807,-0.0154926855287294,0.0491203301759666,9.39113524558413,1.2365448975571,5.18818558856029,SQUAT
1.19,-0.0055614240086812,0.198481116125549,0.0037307003612667,5.46308064513222,1.35101376665745,8.56400612055176,0.0360214533998372,0.173811020071486,0.0102346640424193,5.42447426868492,0.550988703681226,8.41197779694109,0.0337120153948352,-0.0036373111927465,0.0306416974128259,9.34185975498923,1.19463053088404,5.39541460204468,SQUAT
1.2,-0.0255124668084302,0.162018193880667,0.0171627947171131,5.20857819596606,1.29052087731947,8.56187269702071,0.0190805415073659,0.184600629853038,0.0243152060893498,5.25869094858372,0.502241380886397,8.56521096323165,0.0395888803087216,0.0018140393989805,0.0056088168943453,9.27469541514139,1.17970534701425,5.23859663104031,SQUAT
1.21,-0.0421108613746808,0.146052413284622,0.0202706416928052,5.15152775529838,1.3459784951867,8.51665243632306,0.0164056804841975,0.158375837137016,0.0310902904479656,5.09682121123948,0.423982703500504,8.86123822608622,0.0575343439121724,0.0001569056656333,-0.0124581811731341,9.07795724128475,1.36175583984668,5.13380745573449,SQUAT
1.22,-0.0380708632404188,0.139283436329903,0.0299849368403808,5.24983498431457,1.39273987521644,8.51338411173611,0.0162996684330123,0.128118186408938,0.0315272723602938,5.02770865736816,0.494936955584284,8.98337457868023,0.0468279716947349,0.0044143934656417,-0.0268612881901332,8.98165089754803,1.53598678498991,5.17704437737352,SQUAT
1.23,-0.0374840444458172,0.129561184201309,0.0259110951459917,5.21964370383115,1.27059903573754,8.48442194253294,0.0202324896152116,0.100404259428827,0.0229484994801767,4.94233099937242,0.480722278288923,9.05430025119942,0.0376434301027286,0.0004007703773323,-0.0276072459654356,8.99161220037207,1.58144787376839,5.09557188506842,SQUAT
1.24,-0.0183978344533691,0.120920341728664,0.0182273061676911,5.12776210468808,1.12033043189429,8.45105130385726,0.005311606048361,0.0983455400306868,0.0181433838480152,4.8304617028643,0.448626842239387,8.99705284227036,0.0261612064402614,-0.0108846592410773,-0.0231228555755889,8.88329989621369,1.54680002142981,5.06118461848482,SQUAT
1.25,0.0165971839904815,0.10932664446461,0.007139333546625,4.99348664110477,1.14198360325015,8.45016586100733,0.016562015466013,0.0804276001267048,-0.0053709849906438,4.85783022337551,0.560332668517427,8.85643507454626,0.0049070943596947,-0.0328624430095305,-0.0091936013871019,8.80932950002359,1.48574991179695,5.01749810543901,SQUAT
1.26,0.0352170576897681,0.0835820253618908,-0.0022838063334557,4.92914356486604,1.2775210975514,8.34879474676492,0.0210135542441292,0.0728323653217392,-0.0309033947001729,4.77602378218327,0.76972138525683,8.81917252379827,-0.001315277930491,-0.0417428653490159,0.003481074483264,8.87987329486696,1.48453157260854,5.00753953999855,SQUAT
1.27,0.0431839720647883,0.0577155568969933,0.0006500742159995,4.89447793392985,1.50935703103815,8.31726358248202,0.0310109048879837,0.0616871781485295,-0.0439911629234806,4.86972279336001,0.834240503518148,8.74076494938525,0.0099087632837229,-0.0455610353319007,0.0005151663803701,8.89156042635101,1.42279537287277,4.93697380703459,SQUAT
1.28,0.044862766543572,0.0408818261074305,0.0015880683450283,4.90154263145194,1.71042957784974,8.49399759669131,0.0239031258448621,0.057916703539886,-0.0421328688740119,5.03566600583237,0.869394004905791,8.90365021590448,0.0046092582431237,-0.0423167801185801,0.0061444444683417,8.86665717641909,1.47132715110308,4.82155194922662,SQUAT
1.29,0.0179825851415619,0.0396416067726304,0.004811311618322,4.99168895633473,1.62379033484763,8.58676426129349,0.0102388628390984,0.0550511193190233,-0.0419033428754651,5.06981089387247,0.811538681826635,8.90188471972754,-0.0087046949472257,-0.0317704428584147,-3.83079181554e-05,8.85916677632747,1.45408746346088,4.90418734501355,SQUAT
1.3,0.0119631039291482,0.0304912404745716,-0.0038666927308146,5.07145641804058,1.50030856210249,8.50584425308526,-0.0056809562128281,0.0444204925222139,-0.0514111196311284,4.98046425759813,0.736957490138463,8.81627926096684,-0.0244901912352302,-0.0302152234905734,-0.0071778880373893,8.85134034372697,1.43670853463129,4.98757294945495,SQUAT
1.31,0.0153277253480591,0.0233796597469179,-0.0115659817264762,5.04804250347384,1.43623469807694,8.41886353709166,-0.0310218168800524,0.0481538078796526,-0.056639162904759,4.91991658116475,0.660262595660775,8.58894156673056,-0.0187496491485976,-0.0325195950906681,-0.0106940809426336,8.87153387327159,1.43257405729257,5.00025244040503,SQUAT
1.32,0.0255251480033552,0.0063935921803112,-0.0256502139498419,5.0469319139061,1.73388959963642,8.3347486310606,-0.0511318158631473,0.0482788040432507,-0.0643387930400739,4.82254011382722,0.48497523005959,8.4346543946026,-0.0312850861653998,-0.0314873366098609,-0.0141328422999356,8.84898734228959,1.3953756429743,4.93931385221041,SQUAT
1.33,0.0269090738834549,-0.0411167886735827,-0.0275908156426068,5.15379143728128,1.67855514109126,8.30473074396085,-0.0475038070250229,0.0342320043957208,-0.0573528456383002,4.80750981430109,0.418621484170928,8.56530901015094,-0.0376425228005412,-0.0318291177425389,-0.0189518660729664,8.8253265926912,1.33419454013296,4.87370076542125,SQUAT
1.34,0.024899189180946,-0.0215362133918302,-0.0215933675386648,5.25769729273007,1.85981526276996,8.08488966759835,-0.032740568967093,0.0044111959191539,-0.0516141993675855,4.9561867255493,0.39137270531091,8.53367784596432,-0.0384654236475975,-0.0254302370111603,-0.0252873591516355,8.78265485284694,1.2772205735968,4.79324879666464,SQUAT
1.35,-0.0087665266677282,-0.0208096343657653,-0.0195283804538868,5.08683262513697,1.70557621304269,8.34932472174529,-0.0233295605814041,-0.01170476755052,-0.055417904391136,5.06933484763095,0.433458895112811,8.56472411525449,-0.0611224830425963,-0.0226281428299474,-0.0291403691821833,8.76415195919459,1.21924200843082,4.95867472645931,SQUAT
1.36,-0.0155533311585308,-0.0277964311787733,-0.0352103910964586,5.15280037949363,1.52155161837558,8.40284005547688,-0.0067153083674363,-0.0110811401501737,-0.0475097777680338,4.96514945487256,0.304062855656282,8.62329797816214,-0.078733878980492,-0.0222612609664391,-0.0346030376880863,8.7732357870976,1.13306905691436,4.88588730840613,SQUAT
1.37,-0.0302078802051012,-0.0400983009080584,-0.0497683089151248,5.46253403965038,1.31562314127153,8.40071152140964,0.002176652821344,0.0010660755787551,-0.0375869640179281,4.91322091809252,0.316191052439658,8.6840825294101,-0.0626978062331418,-0.0123051864039239,-0.0520802181296109,8.76323088133772,1.17106116306935,4.94714006375572,SQUAT
1.38,-0.0319175903013257,-0.0652825483391486,-0.0408234930731713,5.4141553622306,1.31606207898668,8.30878282795296,0.0033581581093701,-0.0001061361881147,-0.026715089825228,4.8602878023282,0.458431945941763,8.82056136996078,-0.0433103338630524,-0.0038053934168637,-0.0437540354616434,8.67430149767364,1.23271477117928,4.91498813971701,SQUAT
1.39,-0.0194022575347372,-0.0743782014165417,-0.0411810633778276,5.31071994435272,1.2070026592393,8.10821758841044,0.0012794496215788,0.0022953368987197,-0.0335446115544138,4.9839798472578,0.476163822488439,8.90447198284441,-0.0350738186464431,0.0060050500383869,-0.0426925304171842,8.4776777284085,1.27977080533317,4.85530851515684,SQUAT
1.4,-0.0025698627230865,-0.0574853759661071,-0.0338129253464868,5.30132859821242,1.22970368612874,8.1733589240018,0.0053035372594489,0.0044345513418483,-0.0367238791313988,5.07731844677535,0.635000230785544,8.79276598046996,-0.0346680602704797,0.0125410154911731,-0.0267081049855128,8.4207725374782,1.21385831760739,4.83014251533899,SQUAT
1.41,-0.003365619801571,-0.0319774726944691,-0.0335597938336986,5.39406757818271,1.08422853717188,8.15768870958731,-0.0019374419023661,0.0170762361016956,-0.0372089849028918,4.84672753944881,0.897690249720136,8.64140713927149,-0.0508285605887743,0.0039830667032013,-0.0118771262451147,8.46681081712008,1.22302127131511,4.77573386926054,SQUAT
1.42,-0.0050090771792926,-0.0373757279356142,-0.0347920254317791,5.34475725208246,1.22492415398729,8.24043023014453,-0.0169480109201094,0.0097193170967814,-0.0406176980081528,4.46471572664812,0.791703918250026,8.57817317135073,-0.051595987889826,0.0063318392718851,0.0002872184345059,8.49912784206061,1.35402253083873,4.7307620367512,SQUAT
1.43,-0.0015126660790186,-0.0246695987572476,-0.0337797212751496,5.39078093983999,1.24827844376066,8.29324954499675,-0.0219710777475207,-0.002772960465232,-0.0416264281625207,4.5140954328293,0.623806402949375,8.39510513991243,-0.0480925384413163,0.008581183999664,0.0230349129252311,8.46421221253399,1.43009202311297,4.71671644067903,SQUAT
1.44,-0.0005322256064989,-0.0382319587834708,-0.0328722445452659,5.33509111800458,1.3595688689029,8.39291890659606,-0.0079265927288026,-0.0040068143315959,-0.04288607748701,4.71573006581767,0.511518166023739,8.41055294880645,-0.0644200598972233,0.0086132979231959,0.0203632135577515,8.41168611910824,1.27261107713543,4.74407521104154,SQUAT
1.45,-0.0047434272952279,-0.0365476866358603,-0.0243238705907589,5.33950325348566,1.44209043763188,8.35705278887206,0.0068518998912017,-0.0152508617078684,-0.0457743867830322,4.74970848214154,0.491889790089134,8.47157836481607,-0.0577018616764023,-0.0014936058659317,0.025738972153262,8.41762570438752,1.15083604157255,4.82612596190199,SQUAT
1.46,-0.0017338777171317,-0.0330534059346825,-0.0175188558631337,5.315376253532,1.37650241827493,8.37060897482504,-0.0050406618316435,-0.0129223886538822,-0.0386458233694193,4.72388898865587,0.536015792420871,8.58755403154171,-0.0531267236245942,-0.0028054995029751,0.012750592452292,8.44156322510895,1.00176256084464,4.91759686700673,SQUAT
1.47,-0.0066756809125983,-0.0281126143876246,-0.008995514650448,5.25708156766847,1.4284736022068,8.331583226855,-0.0081971716000856,-0.0117499564635767,-0.0293456859382368,4.74631554694442,0.520354999960581,8.60819322140933,-0.0715438015699015,-0.0170354422724549,0.0039797784901283,8.53807616643944,0.907640343548885,4.85343200859607,SQUAT
1.48,-0.0244920773094568,-0.033595373025369,-0.0123235653658274,5.25195908669361,1.50245377921674,8.17473988282612,-0.0077912530615852,-0.0046484543278935,-0.0163681717273039,4.51088450206883,0.335500053172538,8.75827886607935,-0.0608195402059189,-0.0038292771041492,-0.0077742630005892,8.5417932218435,0.897391007406727,4.88675390559825,SQUAT
1.49,-0.0096897274534304,-0.0315951258488507,-0.0158073973246801,5.23086253771636,1.59780781698575,8.12090058159333,-0.0021743106628697,-0.0060309256751976,-0.0102187697153766,4.54001290077128,0.244308352708774,8.79754024819042,-0.0346943526101232,-0.0007674016887162,-0.0191006957097755,8.54178509240961,0.896205001507726,4.88698571585192,SQUAT
1.5,-0.0072913945907157,-0.0549228154867328,-0.016892455663065,5.21706956153899,1.56163862546661,8.04844674299809,0.0087802181118482,-0.0057180410312277,-0.0079878241106879,4.63894293993633,0.229431544287047,8.82548833734325,-0.0280575072180278,-0.0171004222131452,-0.0209415982977202,8.44643174901053,1.04988311518043,4.76908314199546,SQUAT
1.51,0.0028765243966408,-0.0506966284964061,-0.0188198174262437,5.35214524866812,1.48932005798285,8.03469680136428,0.0277778664616273,-0.0294629329192282,-0.0122228542967717,4.71595613341093,0.246806050671456,8.75981435165153,-0.0239674452427153,-0.0189109198570466,-0.0165607064349155,8.42889342625297,1.15687288022765,4.7393345459244,SQUAT
1.52,0.0145391866458234,-0.0221056444147725,-0.0212529404607698,5.28809094280299,1.40848527417429,8.21869731909891,0.0431474022058585,-0.0343015551555972,-0.0190635299938091,4.57344379311659,0.306866117551602,8.55646341842382,-0.002351913085842,-0.0238098916021485,0.009207697179782,8.49301778908071,1.193604311545,4.66860713026803,SQUAT
1.53,0.0063263260334871,-0.0279720345899821,-0.0151819626647896,5.17506202555791,1.46726937719441,8.41919073907477,0.0494208754784239,-0.0509782288801233,-0.0130868792430136,4.54579459400729,0.339975958255441,8.55228594114558,-0.0106789761387483,-0.0255718564997713,0.0322096345079118,8.47273493438376,1.24207597310371,4.78600906425305,SQUAT
1.54,-0.0088569279406483,-0.0240074649123712,-0.0215815489959369,5.2955387067502,1.49786669904181,8.44144102027284,0.0591298758244561,-0.0624225316562407,0.0081713986573452,4.61949231871715,0.399557511812342,8.5505378923658,-0.0385782695889804,-0.0318885005091951,0.0544355322477901,8.51302380472094,1.18976707750858,5.00053344822539,SQUAT
1.55,-0.0024277037424814,-0.0419545368737916,-0.0152448761955706,5.10044750104406,1.51232566981396,8.42984167924711,0.0657024393617576,-0.063328534397972,0.0098072542340057,4.70763362462901,0.643293911778162,8.5652101860609,-0.0560335225139501,-0.0431993959043002,0.0627478255940283,8.63573604362411,1.04979390147271,5.01073814189407,SQUAT
1.56,0.0031982541851414,-0.0577195130245748,-0.0159179076783577,5.2978170299985,1.46989137661367,8.41941044198537,0.0668833902980028,-0.0757811991938245,0.006676827888275,4.88213972272598,1.00719492761307,8.64164993920287,-0.0391340062707943,-0.0523998833965934,0.0526316620908754,8.7211804232674,0.917724266876271,4.98974677224997,SQUAT
1.57,0.0098275539856149,-0.0715934202721476,-0.0159740408133895,5.57930888541252,1.49464815019163,8.41250464681398,0.0668833902980028,-0.0757811991938245,0.006676827888275,4.88213972272598,1.00719492761307,8.64164993920287,-0.0307647812056595,-0.0633986914584955,0.0305909905450089,8.74912303027743,0.854659249435682,4.89906447819987,SQUAT
1.58,0.0142020851094317,-0.110619405887649,0.009726231698914,5.34509442740941,1.43044149652007,8.13569324130341,0.0474209932247027,-0.0878783587365706,0.0036989016554324,4.69720382046765,1.00110454679025,8.79702052174586,-0.038435133020883,-0.0719962858984124,0.0054356846160312,8.82189531072,0.967844273326365,5.03618737999129,SQUAT
1.59,-0.0001730716455853,-0.105296810152502,0.0277888929458018,5.31807887039228,1.41439762825214,8.23168331872997,0.0645662999909207,-0.117680443981449,0.0042075909923116,4.77306517750569,0.942214539566564,8.92695413634672,-0.0450690164393415,-0.0908742889475388,-0.0211283800208851,9.03063181642914,1.01714692010419,4.98454727521158,SQUAT
1.6,-0.0092487667353642,-0.124112429424238,0.042534948785636,5.32621652270294,0.954378258115486,8.41227638774156,0.0837226725680017,-0.137729165214893,-0.0067594547689182,4.89352052869338,0.735430552965297,8.9509756219572,-0.0530921885217814,-0.0937763615079627,-0.0217361895842373,9.22666039161879,1.04793433696443,5.14181472774782,SQUAT
1.61,-0.019235081120206,-0.165077555948958,0.035992478290478,5.26477316356845,0.914677201050036,8.31468515239832,0.13064681195178,-0.159034266362753,-0.0299115221388952,4.86348573039787,0.797410079189469,9.45118435910087,-0.0711113396604203,-0.104551504760452,-0.0182049008876311,9.39347268169509,1.09500730960055,5.34058307864277,SQUAT
1.62,0.0012043032410611,-0.200664529195347,0.0467880906281479,5.21591576834503,1.07234107643506,8.45907986308347,0.149124937268673,-0.208610164385056,-0.0590214583725208,4.99990165037215,0.967133205496237,9.46684891340177,-0.0705150357119527,-0.118428726115905,-0.0059814044028863,9.66706196215753,1.19529837954095,5.37926695594853,SQUAT
1.63,0.031682056910445,-0.214970036745934,0.0741970329381325,5.23162132755358,1.58469340938926,8.60726011364502,0.123322668365745,-0.244669141981548,-0.0701817836052522,5.07034501914188,1.02851863105672,9.01374347220246,-0.0770788061067418,-0.141646294597152,0.0119094075627165,9.90544407605465,1.41949533206155,5.53607873065821,SQUAT
1.64,0.0267798313895371,-0.227483607181313,0.0878963569041405,5.1635340298235,2.24458755244314,8.70010737315926,0.0677517825129015,-0.273336663089481,-0.0826263053670834,4.75675397102073,0.851397063878507,8.57804866099334,-0.10046292688413,-0.152918157368737,0.0240442417415231,10.2739218524083,1.52654133577176,5.61656474039305,SQUAT
1.65,0.0080188565187543,-0.273562107886371,0.080445722442048,5.32255583195373,2.49756902059115,8.96985316944281,0.0444034138510597,-0.323767071711183,-0.0742649056754102,4.66733496257584,0.526624237491812,8.62146053932372,-0.12511533240051,-0.163808049230997,0.0333259162852628,10.5222118398935,1.49799770400805,5.41200089924675,SQUAT
1.66,0.007998858661668,-0.32301973431002,0.0825517874005665,5.56287742510826,2.42940370079252,8.70128106155333,0.0465898689559085,-0.375432637532737,-0.0443551623056595,5.13865839178677,0.606173559916853,9.02277648243877,-0.137802638135007,-0.153612244349969,0.03182894757674,10.4744443582849,1.3611884753996,5.07260483620664,SQUAT
1.67,0.0003565633250876,-0.382517851932684,0.0837758276415911,5.64531376860025,2.25763431204877,8.40552338958919,0.0390524993217635,-0.402351086457243,-0.0279877718867862,5.56700255701046,0.966146458988221,9.03389820964723,-0.144495811695622,-0.145793367708573,0.0161095877794298,10.401645316073,1.30822907810466,5.27156642338968,SQUAT
1.68,0.0021492745871341,-0.392438002251751,0.0885563625394595,5.78486088533243,1.78938547017751,8.31412766122647,0.0198024318791341,-0.421630261850517,-0.0058135206823723,5.49539893181888,1.08594411620363,9.10374779396155,-0.15171984545455,-0.141944707834293,-0.0053895388005798,10.3272384903481,1.42448309051777,5.27827087904765,SQUAT
1.69,0.0039516130625196,-0.441084824178116,0.0896873723877394,5.68523280563494,1.58609737560858,8.28559969177551,-0.0153104271219546,-0.450083780708612,0.0067378432523065,5.21517723185662,1.18868959615086,8.95832820420534,-0.172531461397786,-0.148344068646703,-0.0194536670934067,10.4065406342506,1.45303308122882,5.42603135653801,SQUAT
1.7,-0.0313018932097943,-0.457119121870427,0.0729125533847158,6.06238043470891,1.4155309614654,8.50672426409723,-0.0224027112444589,-0.496559140782696,0.0093193813320073,4.96326251739089,0.817428679879209,8.93219006635891,-0.167691581442988,-0.152317711111586,-0.0275411790442439,10.4681830657552,1.36227489842081,5.44072248528965,SQUAT
1.71,-0.0438819380430367,-0.465848209786196,0.086885151130903,6.17278258056579,1.17063080883605,8.61652522451087,-0.0162783246304648,-0.542624807435831,0.0028927388997344,5.12705661997351,0.340650857675037,9.06790928568597,-0.160237718601742,-0.16288996920429,-0.017859274034247,10.4477309908487,1.29327712492607,5.48660136601832,SQUAT_UP
1.72,-0.0570451687764628,-0.537565217116064,0.103104743787876,5.91453766373492,0.992983144575225,8.54787040593937,0.0108994836328976,-0.602126251316857,-0.0083655607167348,5.12622946459561,0.412077785426023,9.15491912910068,-0.164716633017602,-0.173550295030642,-0.0002687269351818,10.4675736698009,1.23803373793876,5.56584137637022,SQUAT_UP
1.73,-0.009194796651524,-0.605186954509407,0.112933562047118,5.87015974453683,0.939358675869982,8.61729723785437,0.0360963724160435,-0.64416164467448,-0.0193111496287774,5.17746377904878,0.745377632142901,9.10147906186196,-0.150136557045379,-0.189601378129553,0.0244112509063859,10.5358210650433,1.13602031374224,5.60933460756172,SQUAT_UP
1.74,0.041606583214804,-0.634341820453055,0.135858919031131,6.08745869789802,1.11605932983602,8.59861474440278,0.0468512863360826,-0.69678671701068,-0.028853617330959,5.23817634848435,1.088350071305,9.10396862766316,-0.141828844703505,-0.218610208767119,0.0449406698475124,10.5794653933865,1.01218162774419,5.30870437578694,SQUAT_UP
1.75,0.0498819196252773,-0.690949102999495,0.1738896203566,5.958978362294,1.18609633638918,8.52559836416292,0.0261392153019572,-0.739295076227948,-0.0366557003029075,5.41923705899889,1.17965080837761,8.97158213971625,-0.139487504731793,-0.241050678473066,0.050581905699094,10.6121419192108,0.896254110801957,5.18697176273902,SQUAT_UP
1.76,0.040021540161082,-0.69977625631573,0.202198444584834,5.76551436831522,1.11488779112619,8.53927020040684,0.0013769476727435,-0.810385818171289,-0.0507314080019746,5.55851406638047,1.17728760945348,8.87131136002102,-0.130795778068348,-0.265577888996036,0.0506401057931697,10.560402196847,0.873155419303921,5.32803170481789,SQUAT_UP
1.77,0.0314848439752951,-0.747499463653052,0.218851328346045,5.76603160562303,1.1585312007859,8.42977091318688,-0.050226402324496,-0.868846595085523,-0.0569498792482579,5.54052178282404,1.1614312545919,8.70642320988674,-0.12388314993993,-0.28986249417857,0.0390258729189039,10.515400705075,0.91083426219069,5.10467009444907,SQUAT_UP
1.78,0.0148710394998701,-0.793998047912246,0.242399503193748,5.73323386044357,1.53188884340114,8.32144483047049,-0.11192679496773,-0.909918569569542,-0.054780644514829,5.59759210190527,0.987774152473394,8.66170018438553,-0.0937577155668573,-0.313214737635382,0.0368515232801329,10.6061488840206,1.02287471674248,4.96820310920842,SQUAT_UP
1.79,0.0308169747111481,-0.845251224183131,0.249721717222834,5.81883971304119,1.77051537751106,8.11932278126047,-0.138218610233089,-0.952268728123735,-0.0520086378380737,5.60129004654119,0.658167857626358,8.74306406540385,-0.0925778554841537,-0.323904273778495,0.0412965149083054,10.5765092136699,1.16156070709743,4.95980382389095,SQUAT_UP
1.8,0.046510465930007,-0.87169537955711,0.244092837268193,6.06831279217609,1.78520659183815,8.02529382868943,-0.127342276404126,-1.01858607502401,-0.0514662426355316,5.69721356528436,0.392298905537414,8.5463319515436,-0.0712411814417102,-0.329344787252854,0.0379169952468196,10.4941313671234,1.23117337349658,4.83355490341497,SQUAT_UP
1.81,0.0803009050598601,-0.920960326426886,0.23809219057717,6.3049289440742,1.61038233401479,7.83810873501116,-0.123494165820339,-1.06762191151033,-0.0546614892273847,5.82290406417205,0.386442893728809,8.44002783495572,-0.0428911180108487,-0.338171011368126,0.0402580210727411,10.3172508824654,1.33902514327104,4.89103817229199,SQUAT_UP
1.82,0.109241988975211,-0.947716082480032,0.232191749018799,6.51110476364749,1.47450242539826,7.73334901213249,-0.118438264009822,-1.11892299232741,-0.0560323540345111,5.97343938377906,0.406808747394816,8.32203558837867,-0.0536117374455595,-0.367594621909438,0.0457076090679674,10.2500202941705,1.3856060450075,4.86292690744501,SQUAT_UP
1.83,0.104275611489989,-0.993143346947916,0.246619995512739,6.49071814880352,1.36652798903422,7.77936040541757,-0.116970026439769,-1.15718703560982,-0.0604665736747977,6.22830723413674,0.310928510839486,8.18428117354074,-0.0649387604565242,-0.376992325779828,0.046664157892531,10.2506626812668,1.22379534055509,4.84384836758863,SQUAT_UP
1.84,0.0880021443476205,-1.02352245292047,0.238326078885119,6.59507268260494,1.23221853529068,7.77911715300993,-0.112115866044313,-1.17262700851236,-0.0583124906578676,6.50255307580791,0.374423776312728,8.15990305478115,-0.0827801055613562,-0.405933338323986,0.0424654367413305,10.2759614623395,1.07722932745367,4.75114051898573,SQUAT_UP
1.85,0.100943255704513,-1.05958549336137,0.248370064695531,6.88797879299239,1.17968874768435,7.7229020661886,-0.108660630717318,-1.18442994800514,-0.0641676691097697,6.73559499007738,0.50122415896421,7.90515637444874,-0.0981007614996791,-0.422237012317987,0.0366195430057732,10.3377567041535,1.0564875857889,4.64579246084078,SQUAT_UP
1.86,0.127127826321312,-1.06575766057382,0.250940528308408,7.01163348339965,1.17637690314148,7.33109910080925,-0.11737692163117,-1.19328312484468,-0.0734931102549372,6.93265240324641,0.657102664390618,7.64922538702379,-0.0987650880122247,-0.432492785103433,0.0396926303679283,10.331994718768,1.14027314194717,4.53996192661543,SQUAT_UP
1.87,0.149466771535508,-1.09025800512704,0.265102845927151,7.18214608653848,1.14354727988572,7.43405792497062,-0.0780956940403389,-1.23807494289211,-0.085555250958957,6.9859343265597,0.869479465164937,7.54835153400244,-0.10255214552266,-0.443480157506739,0.0202516062473052,10.2983462426756,1.13798652324513,4.48809458769874,SQUAT_UP
1.88,0.156645139477279,-1.10789498470014,0.28110167601002,7.37466248615869,1.18212013816265,7.32131081830656,-0.074617291805666,-1.26903933616706,-0.097724577558019,6.96710756627972,0.937914863573242,7.44940393552165,-0.101206651344984,-0.465749085982196,0.0071235825142528,10.2951708573702,1.19542204090563,4.49869940370378,SQUAT_UP
1.89,0.122130511918114,-1.14096115250987,0.307772234673044,7.38136559341812,1.24705933700568,7.17757004674869,-0.100306449531233,-1.30902959958118,-0.114006787155824,6.91184031659045,0.862018592899074,7.44945247899033,-0.0919988448912041,-0.472585376506416,-0.0059445278079853,10.2880283827597,1.18337692223318,4.49065855043386,SQUAT_UP
1.9,0.0797416537000864,-1.17355854275217,0.333597950730136,7.50717461622993,1.30192595625877,7.04924020512033,-0.106391132850444,-1.34215633460714,-0.12786226090488,6.9001649669154,0.744383599136571,7.22518849778699,-0.0970175629937059,-0.483824190985215,-0.0110831568913081,10.2266646866325,1.14830261979287,4.28647151249924,SQUAT_UP
1.91,0.0389384185447134,-1.18888907637707,0.355149077981077,7.57224893269326,1.38328864820985,6.85770863028646,-0.112334257256271,-1.36197201254517,-0.117167645448365,7.00286142819322,0.579752455941792,7.13939459355748,-0.0872414748288266,-0.505329843847917,-0.0149687023744971,10.0658000152671,1.16369734173665,4.11238523127528,SQUAT_UP
1.92,-0.0050026833938421,-1.20001908604276,0.379521130471393,7.56718036093347,1.29479961357277,6.74789535534077,-0.0948120786097101,-1.41289736587464,-0.112074324935158,7.04493874287551,0.470837636067245,7.06159810649771,-0.098639899581663,-0.524128419174623,-0.0086509424171981,10.0020731451852,1.19899332362887,4.341644288061,SQUAT_UP
1.93,-0.050846583783514,-1.22197721733685,0.395937363717053,7.41637505710786,1.33483496768181,6.5607032823894,-0.0881635183717374,-1.47098153145465,-0.099490692241196,7.14136149761475,0.443396891406147,7.05921068698744,-0.109674271099456,-0.541271639860547,-0.0068580062226375,9.88799994291828,1.29614431884567,4.12494988629449,SQUAT_UP
1.94,-0.0791641654570755,-1.24240713210308,0.396896810214852,7.2317674157715,1.50951826290867,6.48960129829117,-0.114149184378177,-1.48548287736855,-0.101873213690836,7.22290536643108,0.408239537961032,6.99649879809496,-0.106706253674826,-0.55863999070259,0.0087150816573081,9.83135345224635,1.25188157504229,3.95026003739293,SQUAT_UP
1.95,-0.0464812344866665,-1.24252313535846,0.382436345257113,7.42375677844252,1.65396990553433,6.34215358126487,-0.134362962327409,-1.51924860899025,-0.113361827638902,7.22242487440329,0.524879969325511,6.97436336443268,-0.0991565451911301,-0.60045234227696,0.006802496176822,9.6694982768269,1.16238369281916,3.78331927656549,SQUAT_UP
1.96,-0.0135439181582119,-1.26824841578783,0.38160529341362,7.37149665249753,1.68682471882123,6.422476815021,-0.137731849161811,-1.56198122915032,-0.12829414489164,7.24923104609428,0.571204636160698,6.7690987531705,-0.0806499341927521,-0.640864170491721,0.0063331633922432,9.57960724877123,1.12755811346701,3.37567310923206,SQUAT_UP
1.97,-0.029076893996341,-1.29061812251659,0.378379881213126,7.53146110096132,1.43614037331171,6.18509493045584,-0.146571738086768,-1.56147954877517,-0.135609665912187,7.3752008531867,0.491664608884799,6.50626272721921,-0.0746408258092865,-0.66953203932037,0.0009599402766319,9.45307932219228,0.925270244423637,3.14750959593629,SQUAT_UP
1.98,0.0201089342345244,-1.28098609325643,0.37213680320618,7.64632883196141,0.827824839779987,5.98773773770399,-0.197852251914465,-1.52338732422022,-0.12729536413386,7.46243912536351,0.56166457728245,6.26993845994285,-0.0804008537703821,-0.697430250961791,-0.0028556260854934,9.35287707563036,0.768453745197157,3.03354158809818,SQUAT_UP
1.99,0.0624813074691534,-1.27749814316825,0.382482863786915,7.62872741694534,0.62582622196593,5.98578008088033,-0.183741889837399,-1.55507494581449,-0.130092569322901,7.52095188094832,0.611037969387014,6.26271510901364,-0.0881599351261132,-0.704569091337342,0.0017094615303204,9.14758319883064,0.669603682299523,2.92302067207279,SQUAT_UP
2.0,0.10284714693988,-1.29722936741608,0.396172695361361,7.6047577410214,0.642143699664983,5.64682500265637,-0.214071630956901,-1.55325757672891,-0.141533625932073,7.58116853536303,0.647801380804161,5.76308279584165,-0.0813422890231657,-0.719811483529355,0.0085725263821283,9.12195450484152,0.663345349930416,2.8871739569842,SQUAT_UP
2.01,0.129266927023299,-1.30107325066536,0.404319697898607,7.61181052184221,0.759913021038814,5.69417691849436,-0.227513264627452,-1.54595100421752,-0.135940369172529,7.68457599675713,0.448193504852201,5.63975241719016,-0.0735845760334438,-0.736261239460994,0.0157797448666841,9.04226586921261,0.593264563515619,2.92055356120601,SQUAT_UP
2.02,0.114881322820135,-1.30123979855779,0.407248879400674,7.8948222849777,0.787366984344563,5.76456036381953,-0.213011756117255,-1.5707781493607,-0.122052487095553,7.89370101520699,0.337831329606095,5.52955574840612,-0.0715702314725847,-0.749019464197558,0.0243952522698825,8.99917876370087,0.614340360104776,2.87742791819489,SQUAT_UP
2.03,0.103918952465771,-1.30182772467176,0.403110755397105,8.14000212519616,0.694562313152159,5.38715291387274,-0.228610051590621,-1.56393046304441,-0.105047614971073,7.99765612082716,0.337728347452663,5.29562782737917,-0.0957876034953905,-0.771936860144818,0.031333066267144,8.89935016690848,0.685272313317803,2.75196828747887,SQUAT_UP
2.04,0.0813449552716387,-1.34806323876237,0.409411329887239,8.25358505658033,0.72467950695135,5.11888619843361,-0.226298123286811,-1.5771492589887,-0.103262043406836,7.98762744500945,0.314918815362664,5.23101912912939,-0.0974574154932102,-0.776854519299649,0.0434608519686963,8.79887138241226,0.696822206552381,2.75929012059349,SQUAT_UP
2.05,0.100192577922619,-1.38921013537373,0.411463286247106,8.3769955564964,1.0300354123351,4.73231138165517,-0.232667235949025,-1.58301787512093,-0.108816832259023,8.067901826718,0.244819859925705,4.91971544333478,-0.075728382835552,-0.794039416888392,0.0485438790412192,8.6577251765802,0.706963238943196,2.68605250432208,SQUAT_UP
2.06,0.0945507281623243,-1.35935935802408,0.413173001776156,8.50816687723182,1.30423184383355,4.61318713733958,-0.227251695756668,-1.58424930855546,-0.110124181635374,8.17411731623428,0.21547278787669,4.77844126473302,-0.0543927690931141,-0.819065608090514,0.0438455678862872,8.60147320952486,0.780745509573915,2.53133544796006,SQUAT_UP
2.07,0.0731440067303267,-1.36766041145638,0.425335573314573,8.43052747559907,1.11895415808153,4.53214781262076,-0.235450335724482,-1.59153867396564,-0.104134033580289,8.07077624879999,0.233700899771239,4.44844591956112,-0.0379805953241905,-0.832995439039249,0.0440774926013345,8.59202615838555,0.874429141205271,2.17992204736797,SQUAT_UP
2.08,0.0886566461488042,-1.37454694730897,0.426478908809299,8.3802667065491,0.876270758792147,4.18085498209268,-0.262655973127911,-1.57584610627188,-0.0838625310621082,8.264529676159,-0.147475582201811,4.45080432454623,-0.016414997419692,-0.833433976350874,0.050379831537963,8.54520399846563,0.873864855795305,2.01759543213535,SQUAT_UP
2.09,0.119598728107082,-1.33813804398954,0.423757708017767,8.38431768127535,0.437426272532009,4.10366248098514,-0.26182870367981,-1.53418103357539,-0.0638334916080002,8.39385616539267,-0.268892344832179,4.5669180673027,0.0025529942711496,-0.826988269096966,0.0466223828290887,8.48574508547079,0.761112183028595,2.10947767584798,SQUAT_UP
2.1,0.122572825201512,-1.34030586281029,0.421247011097786,8.42921619270725,0.130892295031816,4.1052418135727,-0.231936547007127,-1.57816904429718,-0.0579015751047475,8.41171616721634,-0.27949134775802,4.57610156949318,0.0098974768288095,-0.821025750531011,0.0350363470101998,8.36624289994019,0.584288608658824,2.18604250282945,SQUAT_UP
2.11,0.169176549443669,-1.34929861758983,0.416808518708449,8.61966979138721,-0.288888967206695,3.9445003652472,-0.18748700496537,-1.63147070976269,-0.0768126598442089,8.44668502230614,0.126467956212437,4.02490604598146,0.0414036963746289,-0.812298994016291,0.0308516210753574,8.36184179110034,0.560813488527967,2.21335667127958,SQUAT_UP
2.12,0.26556294186031,-1.34437760166389,0.412928867793391,8.78601432396863,-0.59113871132332,3.82880208164558,-0.178381285005077,-1.64819120202056,-0.103343634917981,8.46938446308632,0.723751341378027,3.57218413799407,0.0609591233061298,-0.798161905755861,0.0367439563859917,8.33584706344035,0.659059677362123,2.17040759419618,SQUAT_UP
2.13,0.345788603934971,-1.36708325011677,0.412416619671463,9.10603832187947,-0.521291246876633,3.92596647003074,-0.206915312325858,-1.62491803151464,-0.126147007700565,8.68741921161209,1.14155730195053,3.6805438288942,0.0663601864658089,-0.784903798495208,0.050775298755898,8.27369927585238,0.656796376590173,2.03736430190076,SQUAT_UP
2.14,0.408490715458033,-1.40396790814996,0.422759861115958,9.17925987473318,-0.500928529148999,3.71357540801689,-0.24759474486526,-1.56963050502045,-0.130161448392333,8.83221057854716,1.39355854129108,3.8496323518118,0.0738014610575656,-0.760224563450019,0.0602151644415954,8.25049293493358,0.661009253071939,2.06540252519545,SQUAT_UP
2.15,0.438125281568965,-1.43199663279566,0.446942646818637,9.16417622961582,-0.278284327348442,3.6983291579031,-0.358472629667185,-1.54451918012134,-0.136511135726346,8.87385603956158,1.28858889038081,3.55032251501252,0.0827061351523243,-0.752673942047543,0.0719682867697828,8.26493351086428,0.670076429806226,1.94939651687959,SQUAT_UP
2.16,0.46063012030161,-1.4671602209288,0.4722847558184,9.02626436958501,0.0902645033894712,3.49372872454537,-0.458503362651563,-1.52308477248997,-0.126592165095563,8.93741771608738,1.09579104344435,3.28984364522982,0.116464767387421,-0.733646142510759,0.0919594558549502,8.30373506047879,0.67935513914339,1.71002458990942,SQUAT_UP
2.17,0.488388499739244,-1.4699325670047,0.490119759451687,8.8979399856878,0.340241665325723,3.42144556341683,-0.517763804104956,-1.52917766342493,-0.150115331623718,8.94625952947732,0.870375595745884,2.72392712473724,0.132489984456148,-0.696725262496813,0.0927935233137235,8.21884018577857,0.725877026508576,1.58757752106071,SQUAT_UP
2.18,0.492600395790863,-1.49371588072581,0.504311677954977,8.88710708300972,0.485803987870226,3.02463180731919,-0.491020266689791,-1.55182641157473,-0.176009160995311,8.96876515023511,0.401268521995479,2.40362059184732,0.131511791503105,-0.692222474041914,0.0981318428987931,8.19927125257578,0.787136499145423,1.9068084969944,SQUAT_UP
2.19,0.422063661718464,-1.50962272381087,0.514250639384661,8.8196128581126,0.754642005039728,2.71535211611379,-0.462195973797047,-1.52005771805921,-0.171111468874097,9.16801297189343,0.0946342960395176,2.3806185825543,0.127137549882327,-0.686431459426534,0.104476588360182,8.29235623976528,0.793918861219388,1.85924934792336,SQUAT_UP
2.2,0.382167654578723,-1.52398823873513,0.527029100206169,8.87543685469733,0.992257659284053,2.63134850062495,-0.411877772585246,-1.51292293900596,-0.184130229679796,9.0535562599205,0.257280784100225,2.14553268891285,0.120035627279758,-0.663146974625249,0.104507210147973,8.32441568091988,0.862140414909656,1.7964207869694,SQUAT_UP
2.21,0.35416693473949,-1.49488477049137,0.534109904492084,8.92827127254182,1.01871359940184,2.40562563047904,-0.361401938993042,-1.52555444147334,-0.192436737539595,9.12960398713809,0.277906276666675,1.99370372177083,0.101508142023729,-0.641260125244189,0.10584499310655,8.3312307609155,0.972961976737289,1.89308372416128,SQUAT_UP
2.22,0.305505036731726,-1.47953481820653,0.532019002281271,8.88757735290114,1.04139065641876,2.23970116614312,-0.312532957515062,-1.53849258248091,-0.196408995897422,9.10577619294131,0.413986626851922,1.64567964945853,0.0830299406199965,-0.629489176448827,0.108285428867286,8.35880247900766,0.985826216256729,1.74167029153106,SQUAT_UP
2.23,0.206560065640109,-1.47752463111528,0.521336972029505,8.85763332922235,1.06665407803406,2.25575559794977,-0.322429683278195,-1.48663841515813,-0.16993261516131,9.34852711761699,0.128105504331308,1.67193386783939,0.0734997301185335,-0.616350143223514,0.111099987663344,8.34146484555188,1.03893258528395,1.66043953322023,SQUAT_UP
2.24,0.142556159267974,-1.48604131876854,0.5107073733425,8.92376286640472,1.16319398042419,2.25034634996081,-0.306317660399241,-1.41407284499329,-0.13422085555602,9.40523891700695,-0.223503817944428,2.21349069673706,0.048670028898086,-0.622974015711453,0.103512085451226,8.29764583755513,1.04470226113222,1.69473900014489,SQUAT_UP
2.25,0.0880856403045256,-1.48134927084491,0.500847234407911,8.99817343208404,1.20749369211286,2.26097422032689,-0.261928009796834,-1.41293561854913,-0.163583259348185,9.13010375087498,-0.075246539176103,2.29403130283929,0.0197833189754502,-0.603105490825475,0.0888474354335039,8.16576497212624,1.03518288137321,1.74599160429605,SQUAT_UP
2.26,0.0444446056886113,-1.47050194369514,0.483487205455401,9.0881080256099,1.09302288355789,2.34672032413883,-0.191648775718022,-1.4503917071393,-0.210690793019931,9.10856198402715,0.330582525723862,2.16770839276046,-0.013732348821837,-0.602720898505363,0.0526999762664592,8.10999557849336,1.0144287579131,1.37766396352577,SQUAT_UP
2.27,-0.0255171965921783,-1.47057783534742,0.480812984526985,9.13443997242717,0.883040630486358,2.33598746561363,-0.111478784988629,-1.48028042998266,-0.2515018703774,9.02253970614049,0.772890181110468,2.04560876702329,-0.010621950977328,-0.579563363015546,0.0202490133473174,7.94503933648306,0.950761280384054,1.51953256351562,SQUAT_UP
2.28,-0.0640184632945726,-1.50046837157446,0.479850726869207,9.05340494051363,0.64625523958589,2.18192913040937,-0.0988081610405542,-1.47458536316262,-0.274911745778458,8.96141449175091,0.998764944261043,2.15581972993477,-0.0071830432533239,-0.571861246622591,-0.0030578581382069,7.8999252629677,0.854566072149034,1.25428797622684,SQUAT_UP
2.29,-0.0392473098857861,-1.4862328979122,0.467509734550853,8.86376035700833,0.413526167549376,2.0708294846603,-0.21850741131234,-1.41021489855931,-0.289780295543703,8.97009481879481,1.22490835774542,1.99780969910646,0.000404381230014,-0.570942034568802,-0.028905831064495,7.87893608363773,0.726696616598458,1.12551671048552,SQUAT_UP
2.3,-0.0652151850375124,-1.49266826937825,0.454172639691915,8.81243129249022,0.306764428590432,2.12048932146278,-0.289408378402449,-1.36406147624881,-0.306541680025631,8.81043228851842,1.47206157774325,1.69733827463587,-0.0007658319069626,-0.557824007258904,-0.0353961766477811,7.84732077732689,0.477110652471721,1.1052660304134,SQUAT_UP
2.31,-0.073996294411585,-1.46112847409852,0.441638358270641,9.02285556881207,0.41833935392995,1.97627782043791,-0.330776117391458,-1.36022617578979,-0.33704538555288,8.99655857372364,1.04407618429229,1.86615249122744,-0.0063087417690755,-0.524286293122999,-0.0440445522513217,7.88733086173982,0.339636864382643,1.10422662605916,SQUAT_UP
2.32,-0.0800444986285879,-1.42504966256379,0.431245069011536,9.02867864048988,0.104896477032656,1.97411501146127,-0.405296199034153,-1.33061562842765,-0.360464939210038,8.99552866858228,0.879126629470018,1.70110597427198,0.0005482798951935,-0.519436037945722,-0.0297641272387611,7.94916634761422,0.238041369494371,0.804262124688378,SQUAT_UP
2.33,-0.138549238720787,-1.43820197483391,0.437219659308861,9.01579259213477,-0.140859134371932,1.68626836563517,-0.436669916180731,-1.32187474626668,-0.379968882499184,8.9264031275596,0.854145414094713,1.44373118381491,0.0530983920865209,-0.504350836295391,-0.0055654795065958,7.88024599496923,0.258508081520181,0.846252235549435,SQUAT_UP
2.34,-0.127543358515725,-1.38004606650726,0.43069500281762,9.0997637974053,-0.0700553424499814,1.52902173480772,-0.441891420424603,-1.2925521786703,-0.385850083181823,9.03711139996514,0.658255702705049,1.79165455985758,0.0957140599619284,-0.487404852487363,0.0202266677811621,7.86893548742889,0.322099873069485,0.994220744706215,SQUAT_UP
2.35,-0.0010274838062346,-1.3561193337625,0.436544492506907,9.07359834826993,-0.235417449655143,1.82882364737576,-0.499980731882147,-1.2849288081391,-0.386190596040679,8.88406400781975,0.713850492043012,1.9079045014452,0.134579838618279,-0.479792913214048,0.0435780543593708,7.92231160020295,0.54049373969699,0.954717489290534,SQUAT_UP
2.36,0.0055188896250765,-1.35346687760217,0.465357980737558,9.17179496676858,-0.756499470455692,1.79925547659402,-0.503568338499042,-1.29783250663962,-0.395581870721331,9.08936924087265,0.722867680013046,1.69719021268708,0.167306407609126,-0.475145602286437,0.0696118305211021,7.95363754218651,0.746311674582752,0.983406150389311,SQUAT_UP
2.37,0.0109835296508495,-1.29780920135241,0.481668224534588,9.07470452059433,-0.864494059903103,1.39685348761021,-0.505821894856663,-1.27205856136735,-0.3899170589564,9.22810814564342,0.537651753249825,1.85557178456879,0.14599205561475,-0.467253412852595,0.0916686762053755,7.99200683411627,0.942433554752259,1.16763925216887,SQUAT_UP
2.38,0.095060566998448,-1.25252718142469,0.447469022522053,9.01877072133361,-0.888662221019451,1.7320537842111,-0.489137613469612,-1.27525314371318,-0.40136014576035,9.16918452617973,0.170869394829739,1.51768249141995,0.12008571579889,-0.471145051741008,0.115421926443425,8.12020394484833,1.01699516619018,1.12751648163597,SQUAT_UP
2.39,0.188026048031037,-1.19626534668614,0.430450414832843,9.23258013859661,-0.778287307962538,2.1833562983191,-0.502278982437978,-1.19196916720051,-0.375284981669992,9.24749288638773,-0.0480156216652702,1.54383737467224,0.129930615483538,-0.451321176657631,0.143598232027859,8.20039680310559,1.02276607902636,0.829835860711235,SQUAT_UP
2.4,0.315778995432254,-1.1592057412864,0.419822777958407,9.25924714417065,-0.590126485533856,2.08726559500335,-0.483069016916951,-1.1940224455237,-0.370362789583168,9.13024149236808,-0.264696673172391,1.69114522532876,0.106861569159843,-0.425571799130917,0.152649436726088,8.24941750403559,1.0168598255795,0.729418045809489,SQUAT_UP
2.41,0.41671705864664,-1.14856074861103,0.394746023081421,9.21844058905247,-0.63089576561306,1.71241278007278,-0.484662186399204,-1.22280887450771,-0.388366239419634,9.41653282258411,-0.198054148640002,1.49142599549657,0.0783829128022841,-0.414064921138376,0.167424797777832,8.35890555971,0.946806061681295,0.63927103720141,SQUAT_UP
2.42,0.480367369338005,-1.10586125222869,0.348278563465648,9.22745840068612,-0.0469732655180349,1.50747853390501,-0.486902001555143,-1.23995207592983,-0.386208981262897,9.49220965302388,-0.384275949644803,0.912927778086417,0.0389677287580963,-0.360407035839747,0.16422305272583,8.51368190731395,0.879666557945189,0.873803598278322,SQUAT_UP
2.43,0.50211353676328,-1.02123872748603,0.290849448341827,9.77101471044055,0.558339872874726,1.58200427518524,-0.427545525715408,-1.25694703893061,-0.387186063560953,9.64690826823545,-0.805658684194562,0.446743675713476,-0.0018795664902006,-0.320670979158633,0.14568323614937,8.6974859978733,0.762333854589462,0.958310872735546,SQUAT_UP
2.44,0.449152409582887,-0.925510430256031,0.252461249398965,10.0057765208871,0.620832850885503,1.52498219062529,-0.267935348395282,-1.23776108034189,-0.360318933299835,9.65958327739399,-0.752246065013078,0.431075258395799,-0.0171275315430734,-0.294105358702343,0.12306316541462,8.97493147245561,0.698222739364191,0.822772503222454,SQUAT_UP
2.45,0.397656017160519,-0.912692205463223,0.217297057629346,9.80160066677908,0.978718922409334,1.48086730647237,-0.139906496191044,-1.20982224985496,-0.340204306620765,9.53785714259257,-0.626020448443335,0.280492048463586,-0.0316824719576293,-0.24731390236069,0.0939137082612057,9.09467490593629,0.499665094171198,0.881154512960877,SQUAT_UP
2.46,0.351293439779439,-0.925518019597422,0.178757195471189,9.54067467380406,0.741472638821785,0.941158280331248,0.0070795458391611,-1.17849890219151,-0.320808461853283,9.17974987718147,-0.540104166692217,0.192894276253558,-0.0619176758686214,-0.217424045917172,0.062578587256391,9.04667003241964,0.341772442569993,1.02904497929859,SQUAT_UP
2.47,0.317202163345443,-0.959264168734781,0.159783696311174,9.17308800847405,0.144913430431258,0.642741087547403,0.136428567374794,-1.2007066087519,-0.303478347491139,8.8188761117021,-0.176151298317437,-0.100278388891298,-0.0715281019666387,-0.184472787661846,0.0352723796525046,8.97698168883139,0.20575728027702,0.971913772696459,SQUAT_UP
2.48,0.235987056492759,-0.953209916934471,0.143503903649381,9.16147451443075,-0.242819765722338,0.408227875076785,0.251551209919164,-1.1791530353088,-0.257078351024507,9.13138597529543,0.439294554954756,0.163471185159224,-0.0516553247767303,-0.188307792371321,0.0311469475006678,8.92617927634068,0.0815652337175641,0.846290961447959,SQUAT_UP
2.49,0.146743237650818,-0.92915343143856,0.153869222338275,9.40159452265962,-0.491824806494219,0.507127187933154,0.402352610055643,-1.13160541932278,-0.204919621746685,9.45684268345041,1.18336825454615,0.751945673198871,-0.0670298203945935,-0.229268728322977,0.0156044837607263,8.96978052949538,-0.083010675102399,0.713089270952185,SQUAT_UP
2.5,-0.0027604636230014,-0.897045548822373,0.181668218196599,9.81669999274579,-0.759288881123314,0.775465437216959,0.521987586997503,-1.06870592385787,-0.17040462829932,9.6469692544226,2.15149412150005,1.03877224637556,-0.12947440130773,-0.280684812943566,-0.0007854307160431,9.13371953836248,-0.146259485279163,0.597302166116726,SQUAT_UP
2.51,-0.0997788971300624,-0.853088025654859,0.216238946703745,9.99086232784974,-1.1624341769916,0.8366580035869,0.539262399222324,-0.958809854935486,-0.129775117384847,9.5991409042866,3.35479686956242,1.60677828609572,-0.0985107590566623,-0.30971376225284,-0.0181362881164318,9.20733018424207,-0.0397411693168435,0.477627337191358,SQUAT_UP
2.52,-0.14179755291502,-0.802806154234835,0.247367702017126,9.81107298199515,-1.67119732001095,0.818725963354734,0.439100269528547,-0.867097897672119,-0.10874745589859,9.54032777884654,4.11010978793436,2.06340324431836,0.0272722009925513,-0.329006010940144,-0.0318258667207943,9.10203257834576,0.0999218847791032,0.491432561034495,SQUAT_UP
2.53,-0.0889723181162481,-0.779994910147698,0.264426083958935,9.23229537051413,-1.98989354876901,0.575958137090951,0.2175027919564,-0.740185669006018,-0.0876982437170918,9.79655337794682,4.2059241712787,2.40603831801056,0.0933127314042405,-0.353429225889418,-0.0549169293105569,8.99823793526327,0.266117528479993,0.635278343146246,SQUAT_UP
2.54,-0.0235394230292555,-0.790060950948718,0.29332218552592,9.22012803229173,-1.93700334439122,0.464947747184189,-0.0378118181652633,-0.649211023994116,-0.0865410043852188,9.71727728586553,3.88559256129065,2.40301120723347,0.0929855836253558,-0.338617404807129,-0.0858218813310852,9.00297793553555,0.419806153022585,0.626291505987671,SQUAT_UP
2.55,-0.0275088408300582,-0.772605440694075,0.323996204192069,9.54457185073122,-1.50985734497308,0.543037153947226,-0.317090930379712,-0.599054323602183,-0.108114577712232,10.0381740570533,2.89346199384649,2.22981741478818,0.0859133341103259,-0.31510328117747,-0.108232954024807,9.03867873177209,0.598756534954679,0.731866654279944,SQUAT_UP
2.56,-0.0724457341488811,-0.751222688910986,0.375735702745898,9.96027910015682,-0.762792513057643,0.243909804477473,-0.492533405312518,-0.514463576584631,-0.128555917695454,10.1690608368473,1.9222730519442,1.41053442907046,0.0735706603446716,-0.293454152690879,-0.11554803510969,9.12424013253601,0.72844205413191,0.793214171481709,SQUAT_UP
2.57,-0.121601218903009,-0.718680405371897,0.399665407522013,10.1850079035355,0.0286251885522978,-0.263153782076887,-0.554045862507518,-0.504359970061983,-0.135243414346032,10.1168684382891,0.912234418416334,0.603294046068733,0.0702588133000364,-0.290015931627383,-0.112684707167708,9.31063895375872,0.736807314904116,0.73525935302086,SQUAT_UP
2.58,-0.186031131848117,-0.703443248259599,0.405678508502193,10.1384171930057,0.723804124618731,-0.649683748027802,-0.545112816893614,-0.474295008818901,-0.132566008851769,10.0440513773452,0.241332133054383,-0.236807598842832,0.0640317843247982,-0.274844670558649,-0.102661246503484,9.45518751933015,0.656996750813162,0.78112166993568,SQUAT_UP
2.59,-0.34343156367441,-0.71513827735004,0.387415669508828,9.80490638194547,1.08008971662296,-0.564602605287976,-0.440924117775417,-0.414016536525635,-0.119946076894284,9.79844918107455,-0.0490142541091955,-0.858267003823739,0.0556937492906319,-0.259178086910237,-0.0829948568170783,9.49472219547153,0.591369683870764,0.982096673193203,SQUAT_UP
2.6,-0.531402064106915,-0.67916710451849,0.348791931957714,9.50302441722113,0.820518306277502,-0.443042352089824,-0.263211781344394,-0.383214402443613,-0.129371524874544,9.627579772349,-0.261602805024525,-1.08633258005065,0.0377619605219308,-0.251639809079977,-0.0727025138170797,9.48673208655385,0.658021451906848,1.19177566874854,SQUAT_UP
2.61,-0.746046930856373,-0.622486390660866,0.323124489195768,9.68211712643314,-0.157316320855428,-0.286605567393083,-0.050889956095892,-0.373289384853441,-0.147330990276354,9.72703383314007,-0.0341060681871033,-1.01025922980274,0.047456757397158,-0.25563857141261,-0.0751898072146581,9.46252939127779,0.814165011181508,1.20786731522262,SQUAT_UP
2.62,-0.941788262453076,-0.546975214895823,0.317690840639501,9.95126523073597,-1.10234666439865,-0.0553148812766788,0.0501316936827036,-0.318586882133886,-0.150467996702215,9.82721873945692,0.67257596198049,-0.587750724816732,0.047456757397158,-0.25563857141261,-0.0751898072146581,9.46252939127779,0.814165011181508,1.20786731522262,SQUAT_UP
2.63,-0.989016416466909,-0.468624948149172,0.291366418384542,10.2286503310554,-1.73272892726834,0.0386877542355814,0.036642408007739,-0.259564046740137,-0.147473883413968,9.92137205238939,1.59938309785389,-0.683269391386424,0.0686068271496705,-0.25649194913741,-0.0897469303871527,9.43211231603038,0.883506148848559,1.15894224397731,SQUAT_UP
2.64,-0.841457350373596,-0.370076139842298,0.242592946860227,10.1854248896008,-2.38034410233303,-0.154104312709148,0.0248716462590642,-0.268100793824157,-0.146983870554972,9.88569077050007,2.1952450603841,-0.717010849341219,0.0917476540693635,-0.269610969308242,-0.103755350136109,9.46778229312281,0.810740788950345,1.00282803141569,SQUAT_UP
2.65,-0.621824537351511,-0.30420646610604,0.18675830270894,9.93177223063594,-3.02624872388645,-0.165367886926575,0.0276321223838435,-0.271724313615562,-0.135711333192562,9.77248962983003,2.475482701498,-0.929021804922963,0.106202360592479,-0.297431956766293,-0.101098116872268,9.51168693829978,0.598256175842984,0.776088384471876,SQUAT_UP
2.66,-0.42979558714432,-0.276092935952635,0.155173859030301,9.90690973050784,-2.82323442605776,-0.0578211320992749,0.0679011615414625,-0.291191552898694,-0.134900324268184,9.29322223644729,2.47835967080418,-1.06709660212762,0.123087240556096,-0.3169176425334,-0.0823830423499981,9.42738235420843,0.320270043589384,0.610663971065709,SQUAT_UP
2.67,-0.229838265479467,-0.281602037250363,0.136011898428658,9.80028871437805,-2.30721528212809,-0.240922405281379,0.0719782640623952,-0.356950571418031,-0.143494944090105,9.33050254155875,2.02829078424279,-1.12611023310025,0.142661757300564,-0.331982953822515,-0.05344668672115,9.4216045977707,0.259753951822412,0.54331456887669,SQUAT_UP
2.68,-0.0555283773725752,-0.287657521934723,0.121275555272176,9.81625424913059,-1.86598742162541,-0.542160896140997,0.0590709114919136,-0.365744597498403,-0.159311927059335,9.54341500399512,1.51910118614303,-1.1220181975344,0.170589968132123,-0.350106146759129,-0.0232002953031208,9.49497219519551,0.290970384655424,0.429140248327932,SQUAT_UP
2.69,0.0843363979571906,-0.263815891111179,0.115276238299187,9.98170713028887,-1.353591232375,-0.837676339661458,0.12178591317934,-0.33636492179792,-0.159178169594152,9.73680182044449,1.34173311766378,-1.14015703162293,0.181429810054714,-0.358493611632975,0.0019702936529279,9.6359626026501,0.365838753160967,0.409401174276576,SQUAT_UP
2.7,0.132893029106983,-0.242764730649827,0.120493556395024,9.87780669670353,-1.29596245758331,-0.949090917431258,0.225091962456062,-0.265100551491695,-0.1606938293001,9.93029046971451,1.30344217776163,-1.2261875222215,0.193837229578729,-0.351882459528532,0.015097493970438,9.97782121882929,0.53217926245489,0.3672175121868,SQUAT_UP
2.71,0.105849085219612,-0.215596034434577,0.126752440147186,9.92191395655557,-1.28426487393722,-0.9776909739495,0.373618288061113,-0.173317826572179,-0.145021039903428,9.97349480295214,1.52274395520969,-1.1649635570888,0.199242835900794,-0.303449953180987,0.018428880271244,10.213843597778,0.77281940312967,0.438671419491557,SQUAT_UP
2.72,0.0776169048774026,-0.155591148530923,0.099393615762431,9.87109500867072,-1.51761754452039,-1.00254577779925,0.47484158803105,-0.0870358375317158,-0.125580450604032,10.0597832494375,1.88871819691167,-0.97718544776983,0.194528496282975,-0.237762025167496,0.0080875257618495,10.3839281720555,0.970678851319813,0.695424341215637,SQUAT_UP
2.73,0.109556880347893,-0.123104475472263,0.0830285813162182,9.80756332550454,-1.95933108394285,-1.08830445577315,0.488126560319261,-0.0256776100109785,-0.0841644780492286,9.97871297690098,2.44422937041517,-0.66379637754976,0.174439050248284,-0.17869662236729,0.0036530470876721,10.4948004981035,1.16992457898188,0.719308754935529,SQUAT_UP
2.74,0.19028616790189,-0.107294232006241,0.0616299992842795,9.6368589309015,-2.1959780138329,-1.17570755958186,0.416694193597786,-0.0119422323085759,-0.0664840240175632,9.93846084461642,2.72380085892992,-0.531113046861297,0.147461249667756,-0.131462512491344,-0.0094187303906633,10.4907620459572,1.20902905346382,0.629649173296136,SQUAT_UP
2.75,0.251614665166445,-0.0978589361112719,0.0575692115705473,9.67624763546152,-2.16927648954902,-1.49432705951021,0.298524630023851,-0.0232845933783046,-0.0285267723742661,9.61869114516969,2.91852671000485,-0.708441366142401,0.111159164260363,-0.115417527090888,-0.0013117175856014,10.4722074936696,1.23905308765271,0.614917819318046,SQUAT_UP
2.76,0.254255639395058,-0.0712423103214299,0.0536537917636558,9.59788540971112,-1.8159015303234,-1.94441064921133,0.134992299905329,-0.0884351524032628,-0.0663396043840618,9.89748287439226,2.74189852726171,-1.23212770735456,0.0747785377555764,-0.113186712420168,0.0170654532740861,10.3003834093552,1.16349305704396,0.483452527063484,SQUAT_UP
2.77,0.253458480690921,-0.0567643442858222,0.0474357231601281,9.6002900254619,-1.30904273075024,-2.17900375118121,0.0163215192884663,-0.137344109158838,-0.0597051576712859,9.64458841520028,2.60194514091242,-1.84535544911911,0.0390105890085956,-0.110344033166555,0.0415397724218005,10.1195231239595,1.05876615894439,0.373192725362299,SQUAT_UP
2.78,0.205180636926014,-0.0474658878875501,0.0331021298477176,9.554898519127,-1.02292393021033,-2.41995854804526,0.0029346311127223,-0.158638717297098,-0.0425257424899266,9.14908054671233,2.19377440589572,-1.71998507975967,0.0014568708866867,-0.11110913249106,0.0578900491290313,9.91365864944244,1.03882530674599,0.219676157490451,SQUAT_UP
2.79,0.155409045160993,-0.0547969129543417,0.0313066109021378,9.42916643277938,-0.894711100004206,-2.59434638614211,-0.0872150205984633,-0.171632113230739,-0.0656746472077419,9.51148970767399,2.07132924180347,-1.9656105205697,-0.0266259220792343,-0.10451813008272,0.0496563040792266,9.71776053003699,0.963277167354383,0.087460887809743,SQUAT_UP
2.8,0.096514874154459,-0.0745762851937387,0.0311208585287616,9.25366503196083,-0.734493313551581,-2.390718953814,-0.0797549889340658,-0.195047187658714,-0.0507727904014252,9.03790546148185,2.24327299851089,-1.58178279423113,-0.0423009462986693,-0.0918714918678261,0.0312151796931891,9.64919460505302,0.850642792786916,0.0516255764577373,SQUAT_UP
2.81,0.0321258228799737,-0.102086511710205,0.0479835736804162,9.347234575851,-0.690416559565966,-2.41519381198402,-0.0797549889340658,-0.195047187658714,-0.0507727904014252,9.03790546148185,2.24327299851089,-1.58178279423113,-0.0423934103839955,-0.0903183582648117,0.0092719644321879,9.85425072503262,0.674437982987354,0.110823562426877,SQUAT_UP
2.82,-0.0235352394721781,-0.105956796956746,0.0597365110379747,9.43231867474151,-0.862289564403103,-2.48147769202466,-0.0772290103682008,-0.223764968597875,-0.0681765933147536,9.46134776021627,1.90663930070584,-1.70204977890166,-0.0213241625501995,-0.0749791779789437,0.0100422996422435,9.98755210149673,0.533837076497779,0.0357934674854947,SQUAT_UP
2.83,-0.0791967904771123,-0.098942205076924,0.0709916808117338,9.41266165826426,-1.07090729517992,-2.19167361884507,-0.087102359235351,-0.209106487847223,-0.0520683453936657,9.53986913264727,1.84904774962636,-1.74897840841119,-0.0023290070524613,-0.0553315362905626,0.01443443933558,10.0743694355062,0.424745671376285,0.132524545400314,SQUAT_UP
2.84,-0.16473304379013,-0.102258904699065,0.0791608278236761,9.37543429700839,-1.37460929791951,-1.78760650049586,-0.0963534205113677,-0.21152142676675,-0.0373535096583485,9.67156531095838,1.69479771454521,-1.54781581792193,0.0201707015564472,-0.0386709534206215,0.0253424819487781,10.0697261455377,0.482111812748927,0.23431066490039,SQUAT_UP
2.85,-0.196983725768049,-0.119345563834684,0.0819183562763261,9.42930999539303,-1.68318824121507,-1.51553129383498,-0.0666427559244193,-0.204770854462885,-0.0306459844845966,9.75212290860768,1.52919298941311,-1.43627499116964,0.0346507733247516,-0.0286462833486837,0.0332105211195981,10.0346890189136,0.621607303148193,0.166641594305418,SQUAT_UP
2.86,-0.168754684718412,-0.13900141591753,0.0746342478017265,9.45025387084402,-1.8210045613674,-1.35774603087485,-0.0430579913747369,-0.191374991475029,-0.0224976988785859,9.64546774420873,1.51185633444937,-1.66666944651509,0.0633580649924459,-0.0308076454824451,0.0393149975518882,9.91318481495605,0.805891897540569,-0.0867211688681352,SQUAT_UP
2.87,-0.121474201751578,-0.155585291104753,0.0820189667941821,9.53534260584215,-1.55204658617215,-1.13691777620994,0.0246566213233702,-0.154793791226627,-0.0083269434843216,9.50605657570131,1.52512213044618,-1.48246979446397,0.0814058909127589,-0.0318101229924044,0.043856088563514,9.81904303696424,0.863347069274138,-0.0505957565293479,SQUAT_UP
2.88,-0.0602087798866162,-0.13277085829061,0.0649707504199131,9.59897194027233,-1.18381650483915,-1.17216154924127,0.0927537153480755,-0.114862326620358,-0.0093091592034096,9.55634517406936,1.59673127755852,-1.34028225073293,0.0637253643543064,-0.0402588530285478,0.0493857832104994,9.79136819689435,0.86085634844123,-0.0347499281279934,STAND
2.89,-0.0377233624086212,-0.0819877812351519,0.0343331141629514,9.68142187252158,-1.25417752826193,-1.24638343636168,0.144953718420597,-0.0704295524609831,-0.0168237816950442,9.63836192174071,1.62401133729897,-1.29628137567339,0.0405200379724794,-0.0334948627946095,0.0479502143313531,9.75036049016937,0.787066405617976,-0.0298741843052485,STAND
2.9,-0.0507751173383501,-0.0013375606897312,0.0022779777954236,9.72894085754372,-1.37939279516342,-1.26425397641872,0.172804875718005,-0.0320914250006241,-0.0199924110665684,9.82759496222792,1.77478320142346,-1.30022943526931,0.0101143452187764,-0.0204806846045923,0.0612879429105056,9.71380161424697,0.736469028556275,-0.0200541343661008,STAND
2.91,-0.116959965958188,0.0550179354481721,0.0015450281352411,9.79633443416638,-1.46912857014014,-0.938288530865279,0.216780083776019,-0.0055090569310631,-0.0121786075986956,9.82677513074527,1.8358657571706,-1.23848476743191,-0.0141847024448443,0.0053889847518935,0.0693259179959028,9.70979493802149,0.706411804283377,-0.0244600093823301,STAND
2.92,-0.176566722234366,0.0694082019263585,0.0174283102021771,9.8976789370818,-1.32011610689643,-0.569861368413904,0.249639545747213,0.0055547818494824,-0.0038476817613047,9.60034123709886,1.83438718461875,-1.23543236682517,-0.030669733050751,0.0395569462764966,0.0723689179255875,9.76309628342416,0.63118340769824,0.0295792117736295,STAND
2.93,-0.183672793312234,0.0756272874457189,0.0329666016832051,9.9459523650671,-1.06062967246628,-1.01579905621708,0.237621556930602,-0.0118550818116118,-0.0039045043715035,9.57267982466603,1.65652092469114,-1.42487024962505,-0.0441958041501047,0.0641255667816794,0.0680356884605858,9.83536898161813,0.568783564395441,0.141755392279442,STAND
2.94,-0.101445821248976,0.0778862537966316,0.0342392322504065,9.90593750040522,-1.21904682187589,-1.34188442550338,0.194789076841934,0.0131604261977514,-0.0027984183319495,9.57595761884152,1.58844395854655,-1.5639333067786,-0.0460472067132072,0.0744423647025444,0.0635931090491915,9.85470698421184,0.554262698180866,0.176480846464657,STAND
2.95,-0.0507931932151455,0.0730905761259441,0.031431446541594,9.82748499977603,-1.41342568179795,-1.35379281952056,0.164181429689718,0.0291549216557829,0.0044848554123257,9.50040115635145,1.7057069283768,-1.64239975622963,-0.0286344480982653,0.0766186001237825,0.0540988054817292,9.85489518636889,0.548396332407678,0.184130129306646,STAND
2.96,-0.0407700855218566,0.0549096179171268,0.0266590851682443,9.55719355640184,-1.31713514743413,-1.40660004282658,0.164980800240194,0.0292685069234415,0.0065318915641147,9.53335601526369,1.81143330620901,-1.62850916586944,-0.0069487476638076,0.0682149395609929,0.0335234336236518,9.70375000319375,0.630228175539324,0.147970716901722,STAND
2.97,-0.0393670262767131,0.0374668207472268,0.0154004163692162,9.44928898100302,-1.34674542156002,-1.61130784790021,0.141456495688233,0.0224149571607412,0.0216770661777962,9.53523617607624,1.86885142901354,-1.59696933590506,0.0123599504168952,0.0342534028301403,0.0229783016168718,9.58529876214149,0.714349717499213,0.0657053659254265,STAND
2.98,-0.0366462534566207,0.0201914813843161,0.002427398657901,9.32235257087929,-1.41508002140576,-1.61390413589647,0.0838322630059508,7.2101151443e-05,0.0345300534091968,9.37748898781369,1.94809804453996,-1.45332349190364,0.0318475920847002,-0.0034242364466248,0.0184864503007959,9.56110697731709,0.716240330639123,-0.0873478519109235,STAND
2.99,-0.0345592670093321,0.0053526444429051,-0.0040206785050244,9.40180340193283,-1.43850152312917,-1.51109947996596,0.038580165426774,-0.0258563215797537,0.0333702155410714,9.45742015925147,1.85157618017312,-1.43048527980466,0.0390915263385358,-0.0292232884710451,0.0179819064107061,9.55133636187148,0.749041726235333,-0.136943434018721,STAND
3.0,-0.0268921196836219,-0.000891482244564,-0.0041597792086653,9.5580646093595,-1.39812050297798,-1.49476071066025,-0.003537674625843,-0.0467289776471717,0.0253816368661153,9.46922253167882,1.63505525721402,-1.28513866941116,0.0436458097563184,-0.0412021697306594,0.026751152778109,9.64943188069554,0.811065167963323,-0.189297991103836,STAND
3.01,-0.0245576870226516,0.0171887554639908,0.0004740929840701,9.63098250842682,-1.26836536270695,-1.40937350307656,-0.0165814426770335,-0.0570559950727216,0.0187970378383682,9.58904107834426,1.54034832315791,-1.22832264174515,0.0444521869677209,-0.0442916920108847,0.0387848510575353,9.67241239217925,0.884593902562322,-0.230310156005696,STAND
3.02,-0.045600469547529,0.0277952967093757,0.0044360833520424,9.7169306481095,-1.21664940146904,-1.18759183742085,-0.0144141661417171,-0.0558427823922653,0.0129086362993951,9.67751209316713,1.39860471088652,-1.15380120890329,0.0350505815558511,-0.024114574608439,0.0449981655114996,9.72438640342585,0.893820380141684,-0.222556916635176,STAND
3.03,-0.0563795385472147,0.0496515163192729,0.0035135556515531,9.75371187054998,-1.22606404389333,-1.14489387254007,-0.0098201649053416,-0.0301001537910636,0.0120535209891362,9.80446775466152,1.42245813090632,-1.13623537511307,0.0133034125698349,-0.0121142495170159,0.0456536209881731,9.72567790886588,0.870048290545036,-0.101556624646527,STAND
3.04,-0.0526301460154182,0.0444407378287279,0.0086573606417731,9.7627249563328,-1.3315711986999,-1.11432977660801,0.0090678761409978,-0.0018218869553294,0.0124016785467863,9.75049922295563,1.50501395560926,-1.10945892899577,-0.0108711857266238,-0.006122146073697,0.0421189694080647,9.80111834503658,0.832196288844101,-0.142222600424324,STAND
3.05,-0.0447266547748853,0.0302219163868193,0.0107549733658802,9.72333296781368,-1.38155499485601,-0.981605577414363,0.0224614969812358,0.0223367267004097,0.0203920984461871,9.76681960278916,1.54238141408982,-1.10987475785395,-0.0154190898403462,0.0058566843945578,0.0333397142045274,9.84491608423656,0.79598312483681,0.0123814983398888,STAND
3.06,-0.0343566553894489,0.0121594558763112,0.0198569069119995,9.74251101790844,-1.39760856573204,-0.911005497463293,0.0293919866405957,0.0279262412521805,0.0204259262469662,9.71426284977162,1.59157766397252,-1.12985719243784,-0.0220957849497051,0.0180766810018236,0.0242571604560221,9.89222436243924,0.782749296355922,0.0214210659630332,STAND
3.07,0.0004407278652844,0.0140428579291461,0.0137853758443292,9.76398684228162,-1.45896259437114,-1.11010830719215,0.02590367270161,0.0341910828395307,0.0160267904143083,9.66405734891751,1.60700076552871,-1.23411300338391,-0.0114376028939285,0.0206951706954798,0.0178008121262462,9.85417871859377,0.755037234658186,-0.086932341466117,STAND
3.08,0.0478077348033264,0.0250219692511148,0.0085070528280902,9.722271160146,-1.48972249015844,-1.07675273711417,0.0164909745070907,0.0327918392915255,0.0187633426927393,9.61394245728651,1.62255029002682,-1.33807074350059,-0.008431584119196,0.0151642811029212,0.0143647158548686,9.81187379394815,0.787559744987103,-0.0891168718508415,STAND
3.09,0.0423701125222157,0.0319114214947203,0.0022185913468232,9.70884475274842,-1.43672502230537,-1.21312364803352,-0.0030347071191485,0.0502646682051187,0.0275107782178797,9.58949321952847,1.62898408951154,-1.38762534329083,-0.0124095253450518,0.0079653931356535,0.0139259753259238,9.77400451731583,0.802277627055046,-0.143271340718724,STAND
3.1,0.0164298282607044,0.0423884256279085,-0.007119225156334,9.61786368771556,-1.33465168853239,-1.44635501451173,-0.0276648921971102,0.0503049308572436,0.0203354985419991,9.60113591297271,1.67826437635732,-1.55756490378816,-0.0172365214081028,-0.0020079514980963,0.0074800635712016,9.75500443791997,0.78846589184603,-0.198073172815911,STAND
3.11,0.0038931862439318,0.0254746802130811,-0.0071766431316214,9.54358664166892,-1.28210949472702,-1.43694828013781,-0.0545873918584729,0.0402163320753497,0.021633306132443,9.47646917429947,1.65050610947712,-1.60880814876864,-0.0201824713035796,-0.0063169932468383,0.0110925624755132,9.75032951633664,0.743081135806543,-0.229574325696134,STAND
3.12,-0.0083037586930848,0.0238774631975777,-0.0056964781219979,9.52499448305082,-1.11818914366732,-1.49765941424227,-0.077829167025975,0.0111170953013687,0.0158503103810462,9.34167451015573,1.57785352458175,-1.79830321519568,-0.0299873335644185,-0.0023366391057375,0.0155613664252746,9.75495871427462,0.744688502804509,-0.253628338308585,STAND
3.13,0.0015563681245073,0.0202335081671926,-0.0012113291860354,9.47640593608774,-1.09820692871709,-1.58133842504326,-0.0533526707288532,-0.0155135257175806,0.0101407787319114,9.34921139455651,1.37504611006852,-1.85690870797049,-0.0245944272036592,-0.0077270446466477,0.0223516528072053,9.75065623830792,0.76087534839543,-0.202556708333971,STAND
3.14,0.003880651229213,0.0102651730435051,0.0051830032042977,9.49776156200072,-1.21390762291097,-1.5071068578934,-0.0218191151305879,-0.0276328106514527,0.0018829309260007,9.3750601007842,1.33407178860267,-1.85533852868,-0.0155426204493099,-0.0002850227704523,0.0274626971026317,9.7271897555188,0.742905194288453,-0.234197469473978,STAND
3.15,-0.0208820563132874,0.0089175608663494,0.0052817230931308,9.54226402800572,-1.24904672431421,-1.3449794227235,0.0112944359939877,-0.0466813654150695,-0.0011343029355795,9.37048207464896,1.36952764360067,-1.73946481235568,-0.0114649569049706,-0.00088440553485,0.0300268036004177,9.73755512425435,0.767943148905635,-0.103749735731345,STAND
3.16,-0.0406159351941491,0.0009954789323944,0.0086647777328702,9.60066185051576,-1.35059042193261,-1.22764972555917,0.0268257217787648,-0.0405468993829931,0.0026759604346948,9.56297370027497,1.44735342713808,-1.56593626459996,-0.005290261832754,5.34021932274e-05,0.0229759189835843,9.77036874189914,0.765845827271606,-0.147504234299007,STAND
3.17,-0.0334823428359859,0.0076349527198276,0.0037505046398914,9.71700600558567,-1.4413268947092,-1.17589733401182,0.0241145411030567,-0.0298646562438466,0.0094098858547674,9.61471031915412,1.48990864686786,-1.43102864994879,0.000299428652925,0.0024232918491291,0.0118651458128999,9.82664400186032,0.759365563683791,-0.187286386011917,STAND
3.18,-0.0084025867312881,0.0192849392960008,-0.0061516512778498,9.70476605359806,-1.51135209332,-1.31604835312905,0.0242351596752215,-0.0209276095419952,0.0068151684272018,9.71257627733878,1.62065602294239,-1.28005162534574,0.0012190480346932,0.0030025557640456,0.0020993474349445,9.81748667372238,0.732147650176784,-0.166943005995641,STAND
3.19,0.0115310535835796,0.0177027172498463,-0.0074483078234708,9.67880476739464,-1.54641140608913,-1.13366351430619,0.0447973223600918,0.010972924510359,0.0108140162148662,9.62148238978379,1.68043756462391,-1.22727479525437,0.0004584212522742,0.0081443838609831,-0.0079836521458638,9.85077145212056,0.69253867478059,-0.114788006374603,STAND
3.2,0.0010205656949676,0.0144233372559696,-0.0048291962703,9.6854539720432,-1.40249969340382,-1.10274127399274,0.0256093095173221,0.0159801409622637,0.0055807144462648,9.6091093911849,1.55403949447692,-1.22966478824477,-0.0043465669301128,0.0121072265257064,-0.0107138830040867,9.84162693282716,0.687739266530958,-0.0661452857384734,STAND
3.21,-0.0080355681315801,0.0174358685353219,-0.0033000040146364,9.61749949278068,-1.28705840032992,-1.16109019925098,0.0175191941631485,0.0208700921806086,0.0007993822053736,9.63704523484776,1.51069255203127,-1.25955790868682,-0.0127059217464233,0.0212544778356717,-0.0041538704495618,9.78088246765575,0.690383989493042,-0.0007270959935795,STAND
3.22,-0.0165910740013271,0.015379573486668,0.0022776581102517,9.62333575068116,-1.24773666183484,-1.23033585755942,0.017170354941912,0.0192175913164669,-0.0012340741897243,9.54213789182751,1.50107560053962,-1.34812065659897,-0.0100444206727546,0.0294201520323034,3.69784789612e-05,9.73370347803725,0.680279963503294,-0.0334630365956934,STAND
3.23,-0.0274025090095988,0.0170097686698437,0.0023495915800245,9.66391044861418,-1.31019852084783,-1.1760926887254,0.0140314204736631,0.0149529095266814,-0.0029769724433879,9.51257236757362,1.38884395185829,-1.42910059296717,-0.0086014615535183,0.0345834832308939,0.0021268437219872,9.69194306804959,0.673952975226707,0.0610862597642696,STAND
3.24,-0.0376795806111868,0.0244478398145504,0.0060498766470963,9.79595859793107,-1.37530204757081,-1.25064578703914,0.008378476909933,0.0200184775627106,-0.0014969121495437,9.60391812950157,1.47186894646583,-1.47948558416207,-0.00382539304798,0.0324035616484307,-0.0050673885583722,9.68237735859653,0.750350041859159,0.0717363866791662,STAND
3.25,-0.0348057977284654,0.0261534424729385,0.0042953868393092,9.77370218908115,-1.35173107001374,-1.23736762436477,-0.0048774537083003,0.0102686363234322,0.0040176169447648,9.51967691035613,1.53874952261073,-1.4158715631413,-0.0018927778088168,0.0219421991604058,-0.0144997192238212,9.7246722001611,0.717130270731626,0.0784176065586092,STAND
3.26,-0.0329662828645972,0.0177768601144435,-0.0045653416520269,9.70328966245236,-1.35210965880605,-1.21651479946134,-0.0026745644212708,0.0055425211196908,0.0062738485834252,9.49218462412636,1.58110216839347,-1.38377178874584,0.000730518388501,0.0060754474491206,-0.0257149465969115,9.80425025317963,0.709101458126834,0.0438467155217123,STAND
3.27,-0.0046701915560293,0.027763637849478,-0.0134936692476856,9.6214237980267,-1.46625468440322,-1.24304777540016,-0.0026745644212708,0.0055425211196908,0.0062738485834252,9.49218462412636,1.58110216839347,-1.38377178874584,0.0108336221102951,-0.0174733768372575,-0.0317693004122483,9.78495934716072,0.678429802840777,-0.0395693661209265,STAND
3.28,0.0205174112369522,0.0253264638951549,-0.0217562767465782,9.59787894215477,-1.56905349347454,-1.33410380392242,-0.0080515817472351,0.0111473062615068,0.0027248973683055,9.51303319683631,1.61483954211727,-1.48743153051033,0.0402697182427961,-0.03502169291134,-0.0272550338184933,9.73754744789895,0.650148495216788,-0.105190774572091,STAND
3.29,0.0419402690015771,0.0315732922734488,-0.0239613915794892,9.59441112454493,-1.51447944591222,-1.34411661006976,-0.022851655327946,0.0031742145991747,0.0025343500246564,9.53635087648522,1.51403667026872,-1.4805894762039,0.0659150507395659,-0.0338287182130435,-0.0196728044235222,9.71375034453058,0.636774860465448,-0.140312054342175,STAND
3.3,0.0695464578715574,0.0237580779210537,-0.0253613851164282,9.54062441749208,-1.3839561265382,-1.3495230875693,-0.0197490917198889,0.0011823083015763,-0.0032340998869594,9.63930533572785,1.4145535819896,-1.3668419767047,0.0770377841818371,-0.0363097950805448,-0.0002633554426523,9.68031334683302,0.677431578480304,-0.195853101267596,STAND
3.31,0.0976473673372854,0.02021972838785,-0.023281224593902,9.52396855462338,-1.38802123590349,-1.31684876597382,-0.0185461543273668,0.0099356593417289,-0.0001887156003395,9.63852888319302,1.4472918546771,-1.31572070575621,0.0764854793245422,-0.0366487020973645,0.0055704607049938,9.61429412590847,0.716344944958352,-0.20783227722994,STAND
3.32,0.0980399690837314,0.0198981635718918,-0.0202714304116863,9.57526002266089,-1.35894836933599,-1.21795730906883,-0.0077407709111068,0.0179470921636387,0.0052102640387473,9.63850770056274,1.5731467597592,-1.18181724619317,0.0802811087689871,-0.0295582694394758,0.0079271351024992,9.62366076802932,0.783788222489403,-0.176742654276028,STAND
3.33,0.0994906216543696,0.0168374847369018,-0.0207791679541061,9.57152044737568,-1.30543680391525,-1.22827088334874,0.0024137916290049,0.0296909137265936,0.0054706830336688,9.65421149059418,1.5811121278983,-1.19649113965018,0.0800629036219079,-0.0279002966728493,-7.73395882298e-05,9.69977894321343,0.772205784939728,-0.0418803611960219,STAND
3.34,0.0860313527536712,0.0181270237647887,-0.0173108380181252,9.61214263652191,-1.21862387523095,-1.16634304304242,0.0195850730704358,0.0489149123577209,0.0042475914464427,9.68772625392059,1.62641082059133,-1.24547105012929,0.0778117703974534,-0.0337978445039492,-0.0062472207641371,9.86382337339327,0.79692187162063,-0.0865403995192558,STAND
3.35,0.0764041720856495,0.0231286315106292,-0.0201632968066503,9.66803829769564,-1.17425923286981,-1.14339181722769,0.0416435837496715,0.0700624567381208,-0.0016196939788787,9.67631204771184,1.61413910351976,-1.29210555147999,0.0772850613722312,-0.0201913843915086,0.003283944428059,9.90539133044251,0.802780080201297,-0.181300834757521,STAND
3.36,0.061977960280078,0.0360690584072195,-0.0246692388368781,9.76294437480543,-1.17176379943704,-1.16505658472564,0.0529209070362187,0.0772786298052388,-0.004757557771723,9.64808978221382,1.59529419312488,-1.28620246149238,0.0612356214355922,0.0084063657367585,0.0083815252917073,9.89626638156404,0.775650054847795,-0.162195932402189,STAND
3.37,0.0522101566140909,0.0493244551355376,-0.0173909458337492,9.83825267142802,-1.17861669965209,-1.25956348029555,0.0562083337609834,0.0731670725259474,-0.0054476813613115,9.55549093641363,1.6469551460028,-1.33873714312732,0.0374939988969354,0.0306144000887759,0.006598957176247,9.87375705548423,0.761244918564841,-0.0414592042396999,STAND
3.38,0.0568103249932222,0.0415367953616013,-0.0172390002295658,9.79770164704974,-1.13943340121832,-1.31269338670461,0.0515068100580453,0.0577180425675964,-0.0036823571151202,9.59649394506156,1.55259927220154,-1.37865797185699,0.0190042915058307,0.027362746530143,0.0021003048566152,9.81290799685042,0.721096693031489,-0.0298850932353415,STAND
3.39,0.0504038858242177,0.0355252097804284,-0.0185452539064043,9.63060856233427,-1.10118682085131,-1.46162796113577,0.0517716705681973,0.0696889534583321,-0.0007767356410475,9.52140202879426,1.54745268750117,-1.54988868547608,0.0113086351905016,0.0171723486310117,0.0032078636245255,9.72373957658412,0.64163473243063,-0.0537593977556398,SQUAT_DOWN
3.4,0.0336270377506263,0.0230201688751657,-0.0160423454304826,9.53947627927516,-1.09092872050354,-1.61224136628498,0.0730207769589399,0.0604928308528837,0.0006938482794539,9.48321388341081,1.60815452668499,-1.54974194651527,0.0027045209769659,0.0140302044167041,-0.0018867629809859,9.70538701311192,0.588758021069751,-0.0117616366988027,SQUAT_DOWN
3.41,0.0178257727102993,0.0190952266984611,-0.0066205283727411,9.47699970882469,-1.00460386929062,-1.6525465911248,0.0740215880537841,0.0470154539353858,-7.48206075976e-05,9.49365986687565,1.58999352920841,-1.47523354665805,0.003819825545473,-0.0010012013985701,-0.0073596916665273,9.68636322219146,0.597109475525821,-0.0388746824237801,SQUAT_DOWN
3.42,0.0011438955724009,0.0111860127060862,-0.0036699112085936,9.44395031113923,-1.13893514076743,-1.59267644011437,0.0619687397571876,0.0346044216942826,0.0005170832957108,9.55423924513329,1.62426573970618,-1.50587299934868,0.0148661558744742,-0.0100721550408267,-0.019482609198241,9.66199469760756,0.643307522679958,-0.139020818404053,SQUAT_DOWN
3.43,-0.0228075838755721,-0.0001359959639791,0.0029879595028108,9.44105006976198,-1.1055739600025,-1.50721130760862,0.0580916018925117,0.0376872854084852,0.0112308541219533,9.56980135516356,1.69446208550998,-1.45450004312558,0.0267577656081631,-0.0201474878736581,-0.0176220985795231,9.70362434917124,0.671677614202619,-0.20467603466851,SQUAT_DOWN
3.44,-0.0319617255990446,-0.0017224258848347,0.0040336164601506,9.55498082030448,-1.09485649976975,-1.45869548289077,0.0422420554899567,0.0420623045131511,0.004708120432437,9.55577223511532,1.80944084955676,-1.33734363199962,0.0281585157419818,-0.0170258804219105,-0.0174966746107099,9.76897701668863,0.736760565095346,-0.212063634647126,SQUAT_DOWN
3.45,-0.0331936844796704,0.002709366995804,0.0061876999849006,9.59847256102147,-1.12862985731363,-1.2972312646926,0.0364140922382343,0.0374417398243776,0.0173720484980383,9.50249820720372,1.89192602323562,-1.30695579777244,0.0213746925622267,-0.0084315544569382,-0.0047695454344109,9.81153356301223,0.745763954010668,-0.154493499452748,SQUAT_DOWN
3.46,-0.0465596925498606,0.0085987089384299,0.0100861148609631,9.69934114363717,-1.17612028572697,-1.20519813883687,0.0241544522480343,0.0322927852760195,0.0133169699083075,9.52873482991257,1.81820814630243,-1.31630566620085,0.0190366078208519,-0.0002050316682572,0.0066067192677087,9.91021585363812,0.727599808758072,-0.163379820032805,SQUAT_DOWN
3.47,-0.0556354015107141,0.0209458983019775,0.0109789354176814,9.73114591389544,-1.13322853823066,-1.17803223048976,0.0146071881542823,0.0341588069770562,0.0179878566963642,9.59956542705812,1.86560545412654,-1.2605542831662,0.0128853833358738,0.0166139006556487,0.0093594712396391,9.90587301492212,0.745133597242056,-0.111457950352636,SQUAT_DOWN
3.48,-0.0618978542058309,0.0319327422636336,0.0098201821888732,9.73657268699301,-1.16233185610768,-1.15778870272481,0.0139376313700778,0.0430376343875246,0.0132559276367728,9.57121403283587,1.84539665521094,-1.2576414090476,0.0075451254242419,0.0341776237196017,0.0161619705407175,9.85969805868514,0.71463689186878,-0.0210896984273309,SQUAT_DOWN
3.49,-0.0699511901707927,0.0493424882581416,0.0064572859601177,9.7267244324002,-1.14848417101946,-1.09733424625201,-0.0029980960506274,0.0531102043537077,0.0171413549626797,9.63730030659738,1.74107589764882,-1.24405565829312,0.0023096102957012,0.0477479964565224,0.0171187298968747,9.8225680458738,0.689131939108444,0.0231478170170674,SQUAT_DOWN
3.5,-0.0774250151253642,0.0460738993119658,0.0086509016360327,9.66467089592671,-1.21096881825814,-1.14164909808898,-0.0105477334249756,0.0697415941375523,0.0187405963977659,9.6359166210935,1.71054802748888,-1.21926044176684,-0.0020895972106406,0.0539645599996794,0.0124052742040748,9.79448325646463,0.669168811223891,0.0206847828525493,SQUAT_DOWN
3.51,-0.0828173170161711,0.0544711639053979,0.0024810292334931,9.6425490958257,-1.18697971818981,-1.12669334113979,-0.0080462708686626,0.0840564623010286,0.0227887223813134,9.58081111945064,1.66975757033539,-1.24728087441509,-0.0143293033170225,0.0519335485443046,0.0127068311527566,9.78542169781662,0.662589653651689,0.073593114832049,SQUAT_DOWN
3.52,-0.0790291433443552,0.0523296589766821,0.0079542775643583,9.63490891821605,-1.18552675311584,-1.24909528026133,0.0012891012399617,0.0835738418294726,0.0216128244166936,9.61879436081542,1.57708513236821,-1.21491814134879,-0.0166634801311604,0.0639601756514774,0.0160616156816451,9.70573129183286,0.671415421205902,0.115212342671655,SQUAT_DOWN
