time,left_angular_velocity_x,left_angular_velocity_y,left_angular_velocity_z,left_linear_acceleration_x,left_linear_acceleration_y,left_linear_acceleration_z,right_angular_velocity_x,right_angular_velocity_y,right_angular_velocity_z,right_linear_acceleration_x,right_linear_acceleration_y,right_linear_acceleration_z,pelvis_angular_velocity_x,pelvis_angular_velocity_y,pelvis_angular_velocity_z,pelvis_linear_acceleration_x,pelvis_linear_acceleration_y,pelvis_linear_acceleration_z,label
0.01,-0.0271475817883002,-0.009334874988908,0.0019395803560601,9.63491111832196,-0.286845297078711,-1.87106730445358,-0.0233779924330263,0.0488044818084432,0.0080870398915817,9.44100870902904,0.73758025074818,-2.72919486507964,0.0098855107622287,0.0101664150591572,-0.0098751124926454,9.78758064028471,0.900620192476649,-0.259434323728246,STAIR_UP
0.02,-0.0421516940310815,-0.0069626217829322,-0.0056599944416005,9.62453203047006,-0.355121182486383,-1.90482213564779,-0.0261460157990126,0.0330755149139557,0.0059569867379838,9.35846213324033,0.739669008918234,-2.56648358793348,0.0192556571293089,0.0071957987065574,-0.0091792288282901,9.81965729946808,0.925692061353221,-0.271778308594495,STAIR_UP
0.03,-0.0418960155181174,0.0152264255858223,-0.0183896957298165,9.59923867776138,-0.38789858480373,-1.96866719002314,-0.0320317273497874,0.0232941593246299,0.0046790040920152,9.37753633922071,0.618400218451529,-2.49604525169989,0.0343353065638804,0.0027690024267245,-0.0091146949969332,9.85673192457034,0.912913844674634,-0.342188767164032,STAIR_UP
0.04,-0.0256851566702098,0.0499374933994919,-0.0310001455087186,9.55677665283828,-0.421832875829829,-1.94713903740131,-0.0401131254327046,0.0056488909098444,0.0012343121587029,9.39383251310779,0.662335468930239,-2.71204839012164,0.0455546797631409,-0.0005908167961909,-0.006069410810969,9.86219375364365,0.91822398352549,-0.365757554639637,STAIR_UP
0.05,0.0128129352594701,0.0727778823810576,-0.0466062404238752,9.45434181634819,-0.596670790817707,-1.89649886202767,-0.034675398890539,-0.0051940680936013,-0.0091837220951948,9.40578384103321,0.638744570308726,-2.79533374639309,0.0578788002484181,0.0012111214968374,-0.0111059788591003,9.84958257222754,0.932375715059962,-0.417593176042289,STAIR_UP
0.06,0.0270430491456809,0.0625966598797748,-0.0404099175335527,9.42745264116271,-0.608391848047473,-2.0841346842916,-0.0077522116296077,-0.0235799418553483,-0.0242112952909842,9.3448899685068,0.530976343248958,-2.87222395913404,0.0709663372614592,0.0094825461337689,-0.0055190105402756,9.85756558610204,0.918663305849699,-0.469746367961886,STAIR_UP
0.07,0.0435585080396561,0.0432593021285134,-0.0368388153675283,9.49752475530095,-0.583405056305989,-2.1643985482178,0.0269534534794486,-0.0215240646839294,-0.0243271679422269,9.40290199927517,0.447707003765443,-2.87616813333279,0.082935236366134,0.0231489186940684,0.001613656614864,9.83655250387212,0.90364905900316,-0.502367121006826,STAIR_UP
0.08,0.0608862326331232,0.0181996067132552,-0.0358252735396849,9.51504605110413,-0.594192665829942,-2.3743581077412,0.0411624555764852,-0.000908509093344,-0.0260817194550046,9.36388983824669,0.397020835522704,-2.66044250644545,0.0851420290082538,0.0509207390330728,0.0168382144737895,9.82431802976656,0.915698257690514,-0.550912026258488,STAIR_UP
0.09,0.0728695852752532,-0.0038902274573007,-0.0290434442592703,9.47371687240852,-0.608679663913319,-2.5992327886565,0.0484617239948421,-0.0030095701476829,-0.0331051770762639,9.41373356016104,0.536840161393589,-2.60230499801433,0.0896458038756771,0.0686501697023215,0.0323370497614656,9.84591510505382,0.927698947308806,-0.512320544058613,STAIR_UP
0.1,0.0803162238856474,-0.0287369753560223,-0.0190568029728284,9.49866389797616,-0.570783485099045,-2.72374103597947,0.0648380039432887,0.013065303054047,-0.0310921731355426,9.52425576833802,0.585205560187687,-2.52185364723825,0.101366536363687,0.0816687690749618,0.0459366185972393,9.82308426940371,0.927474545977475,-0.510630446070788,STAIR_UP
0.11,0.061818937421178,-0.0446973637372265,-0.00655041859585,9.4310314719186,-0.454495728696798,-2.68072372936844,0.0611201395124061,0.0247840359853589,-0.0327693647608778,9.60716484608721,0.63425612671285,-2.3872635465948,0.102092673621781,0.0984833141554674,0.0521611550006411,9.87159700680976,0.956589014667671,-0.458999564597427,STAIR_UP
0.12,0.0239581675842197,-0.0747170477380443,0.0059571596275799,9.29851018145875,-0.358747648593321,-2.6688970952758,0.0427421592993082,0.0263690113494604,-0.0290179334804709,9.62867301593168,0.641734641426123,-2.28388978468731,0.0806241809197863,0.123933101740508,0.0546401980398756,9.97338288451626,1.02436551800685,-0.384722731327228,STAIR_UP
0.13,-0.0021646326210586,-0.103212686814346,0.0334655368598524,9.21879874734726,-0.210336349026639,-2.58921721009328,0.060115915810156,0.03774444684246,-0.0154872229023806,9.62237526166766,0.658410279923444,-2.25116748702704,0.056807310457855,0.134660262229088,0.053117920675536,10.0368075924875,1.020908168531,-0.30583496572258,STAIR_UP
0.14,-0.0414249946193079,-0.11277985582914,0.0497573593963094,9.27334318996611,-0.005462736597199,-2.43767746144338,0.0783476301515226,0.0729127947481976,0.0034839222858516,9.68060628871477,0.842316581748234,-2.15113163523587,0.032578169706842,0.131239048783538,0.0511586399934944,9.99711390295321,1.00617536350412,-0.227964400202537,STAIR_UP
0.15,-0.0980042916870021,-0.11838073931943,0.0630231479158387,9.5103280483647,-0.206866646246126,-2.28678429074484,0.0784101470111028,0.126818512308375,0.030720476040286,9.72243275245147,1.05881601822596,-1.91013116567755,-0.0087334989703508,0.118395813631245,0.0364348670428893,9.89528940003913,1.03304033360318,-0.183597829672939,STAIR_UP
0.16,-0.174305874461655,-0.0856761802514728,0.0763018156837776,9.72321380298881,-0.548871942750518,-2.08683774749946,0.0545653366614343,0.19053297749063,0.0506349278300528,9.73352014797462,1.22453226652761,-1.72471578544603,-0.0625732494404217,0.123678143492242,0.0144794680847649,9.76696496312138,1.08515950007471,-0.1157431563388,STAIR_UP
0.17,-0.208386993617686,-0.0483845290416543,0.0807169432733415,9.80006293067193,-0.687753660721755,-2.05266735719997,0.0102689906699272,0.279169788681982,0.0873132814166036,9.80912366153236,1.16000356533425,-1.59553399666925,-0.107778607180579,0.143840754399682,-0.0093580239856449,9.6465581669654,1.01723506620531,-0.0680854766151499,STAIR_UP
0.18,-0.180176361357749,-0.0224173403101667,0.0871848904809212,9.79053908139637,-0.746128605993636,-1.95991534391001,-0.054502547669523,0.352366038831386,0.136335905461968,9.6745352195614,1.10060900958097,-1.49221932062461,-0.144360810214884,0.155063724215261,-0.0375387440652926,9.62846323768251,0.920538885488227,-0.0506516415118089,STAIR_UP
0.19,-0.17064433107171,-0.0181231269031278,0.0835505553217493,9.77679601856848,-0.497656684392697,-1.71303151463551,-0.134491815713504,0.369311120383179,0.171076305137337,9.5202773413915,1.17220260174809,-1.50012396736075,-0.149376235169725,0.164989117251667,-0.0655243167059014,9.66570260307756,0.761124795233648,-0.108168718413769,STAIR_UP
0.2,-0.150225207623042,-0.0182916435583513,0.0689048435466023,9.63235742211186,-0.302885785942976,-1.65299692340926,-0.198849095279129,0.359844820440428,0.185396138662288,9.44013587911443,1.06409347225293,-1.63509122474242,-0.128354241769735,0.176271878827372,-0.0936323786629052,9.71787841365071,0.614839252033925,-0.107996414376211,STAIR_UP
0.21,-0.104986775418944,-0.0112731048300857,0.0417419956922727,9.62742715744276,-0.357751292305744,-1.67190895283559,-0.252772502675459,0.332008147605628,0.178235647699177,9.52157381854943,0.608236688714377,-1.84849252077837,-0.0827751967728169,0.179656012698432,-0.126270747587635,9.708560679408,0.512265543669896,-0.140726522884551,STAIR_UP
0.22,-0.0453529620595989,0.0045940614388749,0.0236505519217774,9.59690725667601,-0.44539688669944,-1.75390226365499,-0.272707553987511,0.307228248357839,0.162499252799634,9.49223520055901,0.115764324405683,-2.17239856896446,-0.033485540950959,0.158706334960585,-0.158863111696647,9.74390330656085,0.403861885900257,-0.267897981585558,STAIR_UP
0.23,0.0389053153525096,0.0012962318706485,0.007326142348445,9.40437783224751,-0.331299724409072,-1.8767507215378,-0.208668948708505,0.278319778072483,0.136343196894872,9.48975047577959,-0.24443666642738,-2.44226499073832,0.0088953724643944,0.135559333621983,-0.17605084724013,9.78558592649831,0.345187740120462,-0.386336246392172,STAIR_UP
0.24,0.104744917138227,-0.0106184125689304,0.009978506101051,9.39507192062864,0.0285279542588066,-1.85234239394468,-0.107851712334616,0.266248080582914,0.117197160745419,9.45849271431116,-0.492705851935981,-2.48108247061078,0.0204744609416873,0.117717564779665,-0.190824817243754,9.71518771198338,0.267254393537916,-0.360217666717693,STAIR_UP
0.25,0.13826751821652,-0.0007049470785997,0.013659465420049,9.4214985423327,0.28627920249996,-1.8821259932987,-0.0093685814379359,0.275124331906923,0.103328505263438,9.50325763933375,-0.621922914371041,-2.36362360609133,0.0118964557907002,0.115125599487712,-0.18115468945762,9.68331954150148,0.218377583190276,-0.370797839687096,STAIR_UP
0.26,0.126531057247788,-0.0076898094392314,0.0318731410619637,9.54145591709358,0.37241047941236,-1.84040350545727,0.0886240271402837,0.291648085980339,0.0972956807811116,9.42018171751025,-0.630447935192755,-2.18073451847173,0.0055352706398902,0.115968922027834,-0.164281105429873,9.65380896911581,0.234287639910193,-0.341773066011223,STAIR_UP
0.27,0.0968773298232574,-0.0070971852536354,0.0588558665040308,9.60304186237339,0.454500832496306,-1.81151945352602,0.20866574243987,0.304295998034078,0.0921130955650411,9.3386292124419,-0.403281815227847,-2.1595335410828,-0.0043149847904773,0.120950609939516,-0.143002243161983,9.62767055085863,0.229387410443126,-0.341210576413695,STAIR_UP
0.28,0.0501419619107309,0.0085947373074697,0.0806682910633434,9.79652310419016,0.40267054766282,-1.80117356239639,0.32729921156158,0.311014647625812,0.0795736537712458,9.3383834332319,0.0557019319231424,-2.28014238014229,-0.0139965439859795,0.127837070790562,-0.119311251464473,9.63910637611463,0.228695161217637,-0.277504974465905,STAIR_UP
0.29,0.0030005280248572,0.0366955141410901,0.0891739881745285,9.80949530822586,0.428316395952324,-1.76668349052305,0.457451778654356,0.321184648378508,0.0566246843608791,9.47858584948133,0.500873455762206,-2.46034289713571,-0.0136689907009845,0.136071442710239,-0.0942641379350093,9.57481434726175,0.189947392895146,-0.240330230861264,STAIR_UP
0.3,-0.0224823490497386,0.071679667631503,0.0941872482991084,9.78777339282558,0.316143996914527,-1.82677778497898,0.564569448352126,0.327094736450827,0.0505807505319769,9.56640963380075,0.827706322485245,-2.39470197529876,-0.009380746355844,0.14179395480467,-0.0788659711749822,9.57753855327269,0.221901179939069,-0.221465827306626,STAIR_UP
0.31,-0.0237968711490859,0.0842552676550977,0.0845522044260515,9.74788619056902,0.205836244144425,-1.98936010434622,0.650643271284702,0.275834514072912,0.0380530017766948,9.40658838410881,0.962671359403434,-2.27823153495717,0.0120276982436346,0.143255595873427,-0.0651150303360889,9.61448113118452,0.126612764402306,-0.219036912602723,STAIR_UP
0.32,0.0039275978002577,0.0767186063971045,0.0821825739707366,9.50094891231004,0.171346759378018,-2.00643418931212,0.657702112536508,0.221143273400472,0.0441337615486767,9.39781629834982,1.12762944977299,-2.26579915870803,0.0191183594230896,0.136680228951104,-0.0693314778529501,9.70105294606119,0.0469413786672909,-0.200188880403401,STAIR_UP
0.33,0.034164169596628,0.0477675804108192,0.0821028973342885,9.30471697342992,0.261989619547155,-2.14100076552628,0.613980264730379,0.140052431252089,0.0465281684693604,9.39931854396442,1.18971353751,-2.26161576452139,0.041719173998315,0.128881027105286,-0.0717538743256739,9.84496815867814,0.0767003971070419,-0.350136052920522,STAIR_UP
0.34,0.0714505915258098,0.0448044233326939,0.0914717990727309,9.26323895918201,0.238212861876381,-2.36269058178478,0.540238728810937,0.0795178669324203,0.05345946139897,9.50707831005099,1.28340220968847,-2.10804313689387,0.0682166285838769,0.11214097269193,-0.0647850695245072,10.0149256725661,0.0608001569699247,-0.425998958157664,STAIR_UP
0.35,0.126048527031335,0.0240568905766762,0.108269851510101,9.29375687657106,0.347177697717393,-2.27816278752871,0.455344425638287,0.0405266697193374,0.0574502795928493,9.61655307422887,1.48712966379116,-2.18504739186055,0.0860935610424828,0.0828765898759401,-0.0481805181601865,10.1244065897312,0.149569938314443,-0.498526061112212,STAIR_UP
0.36,0.167101703260524,0.008125782464028,0.131700357239611,9.3798454986476,0.471405346970927,-2.12567026134701,0.373941383033652,0.0130626242802052,0.062967168538461,9.56959533584144,1.74504690720389,-2.1768367971766,0.0772111245508054,0.0723346014072468,-0.0263203150770175,10.1173156176256,0.25603080424843,-0.497544507066758,STAIR_UP
0.37,0.194143085848978,-0.0077475295813059,0.153092559630611,9.47148542880963,0.642064278542639,-1.77109223322542,0.345261693099177,-0.014016312019611,0.0715753322548912,9.5763631410679,1.78904394558851,-2.19534240213764,0.0316559772688262,0.0793447897126445,-0.0028053594959573,10.0874508168301,0.365155389695739,-0.398892309555618,STAIR_UP
0.38,0.197797323924627,-0.0205055853277536,0.190903947910507,9.58258980174799,0.722866815179974,-1.25771100326211,0.345507380943268,-0.0059301527757926,0.0888894440537088,9.51963470124488,1.8755508776946,-2.27960252345541,-0.0168747433363993,0.0904201500314452,0.0152721342710538,10.018408052284,0.441946706230855,-0.367773662478512,STAIR_UP
0.39,0.198622482113209,-0.0403636522710091,0.217915315308876,9.83361548523952,0.721256066341074,-0.862007701862789,0.336559764912009,-0.0100626465679601,0.112466442768394,9.30424787578052,2.10549089935468,-2.331234048259,-0.05725472934261,0.100600246654819,0.0265960597544072,9.96074437209875,0.395397403505447,-0.357294587545779,STAIR_UP
0.4,0.18387524351698,-0.0327804532968379,0.234348080518885,10.1384333038668,0.806936567939151,-0.584044758073277,0.278661284269229,-0.0601458684778703,0.1129331930014,9.12164616402857,2.03647639456493,-2.42441392320573,-0.0904640695266957,0.124870989118603,0.0249960197690035,9.88833895490448,0.316405230282565,-0.200889821603274,STAIR_UP
0.41,0.158223721500066,0.0324137493351831,0.219656335097634,10.3392130505472,0.925444448391125,-0.483305190846654,0.221378574870699,-0.0975309168184306,0.109344706608749,9.17099239708402,1.94637603361158,-2.3778231412842,-0.119203919731617,0.151210302649858,0.0219948009797771,9.83413877638521,0.186415899996885,-0.0475621571986911,STAIR_UP
0.42,0.0844890125725078,0.151136531132813,0.190017529199976,10.3055281455458,0.902961543657894,-0.497100695641673,0.170927066026428,-0.12332321597841,0.101619869267315,9.19864443528918,1.77435865872341,-2.34978072662347,-0.137250088987951,0.169497274153042,0.0162002899809803,9.72858063340594,0.0829362566619885,0.124646613616434,STAIR_UP
0.43,-0.0302370095564926,0.241373637041198,0.167152659820675,10.0320638399715,0.861624018599096,-0.566185671186816,0.144944551167152,-0.166855288655229,0.0946132440784998,9.27725039955324,1.67361431777015,-2.31028497241246,-0.13991028426003,0.176964499807029,0.0199829388277014,9.6589027167921,-0.01562942892415,0.153631560236212,STAIR_UP
0.44,-0.0910148959725778,0.309283886824845,0.14393037047043,9.79149273756953,0.997223001294837,-0.604458886783732,0.145661483643821,-0.175975824617198,0.0881324876051526,9.66896679201856,1.36531282913942,-2.37008714602175,-0.131093313038232,0.171483315200834,0.0249298790400415,9.54443668134314,-0.0829599689676528,0.279760959760895,STAIR_UP
0.45,-0.0993871244985524,0.36830329478467,0.124730691284203,9.70971210250087,1.06895651220754,-0.516194269499149,0.119215218940984,-0.189807888995007,0.0809292421379902,10.0870656107488,1.19417779653534,-2.40428695045997,-0.118720021885351,0.147402399803007,0.0469247009136743,9.48168436031356,0.0615098274174828,0.334382158789624,STAIR_UP
0.46,-0.103660194977769,0.38939464714822,0.131076471146719,9.75870910105538,0.918361055437066,-0.310554146099746,0.113822556135086,-0.202850492657876,0.102633897955747,10.0887958533289,0.955076852648928,-2.47099240646257,-0.111766770556811,0.105659832482989,0.0728040168503636,9.51683131500382,0.27749641750235,0.248321055424943,STAIR_UP
0.47,-0.131610025317375,0.408549115646696,0.138024769223012,10.0117538236383,0.839168890442103,-0.111958037935066,0.141566876531424,-0.230770857839018,0.143985633368341,9.67484787584066,0.575092859599589,-2.60750939505417,-0.119309557643785,0.0881536773510202,0.115938038597552,9.5806395744645,0.425742613357033,0.30989772510532,STAIR_UP
0.48,-0.179705587892114,0.456292807231455,0.152481109877042,10.2467774453169,0.774499875433926,0.117515268562694,0.193732037173685,-0.270614087535804,0.171024843762345,9.16054057631538,0.46196798053661,-2.6889023807238,-0.144313374377166,0.0812079866811579,0.153550946070624,9.61070686438028,0.58740425382596,0.416650778422446,STAIR_UP
0.49,-0.225742104609116,0.532082227958688,0.159721324915654,10.3455567829867,0.673480062598309,0.148618141085107,0.236844774464206,-0.323476682026584,0.169132999641265,8.95885316479081,0.64986698846799,-2.9200038808744,-0.159643714944158,0.0819262594282617,0.185639918599955,9.52543798355404,0.656958265215885,0.419057998824296,STAIR_UP
0.5,-0.220657208563728,0.633818432265741,0.144405832150951,10.4789288988343,0.646590857296214,-0.11980913787558,0.240488975831375,-0.330394750111246,0.145202621848251,8.92092041540587,0.866578833607972,-3.00367282054406,-0.160235857615793,0.073031970910087,0.206527848957329,9.42794736916768,0.606449421066863,0.391956121605771,STAIR_UP
0.51,-0.124683694795562,0.862163238804451,0.0930519681302924,10.5804156663814,0.946163909911861,-0.0377768112385723,0.256955640281236,-0.358206745433492,0.098358090601653,9.13296163503298,1.02688869434131,-3.00973533047874,-0.146436383787319,0.0634521798874499,0.214992966851152,9.38798443286236,0.533423218514705,0.323842098621671,STAIR_UP
0.52,0.0091007752065253,0.946238728559858,0.0299726216708121,10.4170044340702,0.610459942426968,0.0229774646847152,0.265303689434432,-0.356651518487852,0.0741392266545946,9.34637883113102,0.805973156063216,-2.94231025009403,-0.12208391477078,0.0466923919577749,0.221852547110152,9.42228717134985,0.580249089500533,0.146318009103671,STAIR_UP
0.53,0.109370377334192,0.872692794967221,-0.020656808371956,10.252494621097,0.0796104648422021,-0.288923696046254,0.247365928806289,-0.355458511657746,0.0642452003139392,9.50557314956673,0.349069718919523,-2.56913097995739,-0.109155846663428,0.0335094909646747,0.233077988443135,9.5434020055401,0.712405577393538,0.0898500354001296,STAIR_UP
0.54,0.049685910642694,0.744770286753721,-0.0084787685343667,10.694621751969,-0.153583131679146,-0.36377616143866,0.206530357736086,-0.35943874548772,0.0913881755527396,9.44909644297437,-0.0503302237901903,-2.59776023662971,-0.112122520017989,0.0402638497294584,0.243381606601664,9.79693183822352,0.854659513925318,0.127088575014975,STAIR_UP
0.55,-0.122450647256063,0.696996234305044,0.049896137638787,11.5523430907158,0.367523914839081,-0.0271054707365887,0.186770582283578,-0.371180721482249,0.134221816359799,9.1362774099266,-0.296446547986156,-2.93291355177118,-0.150523194347495,0.0696524486466337,0.261427744953967,10.1155144656049,0.934278605389274,0.172801821286157,STAIR_UP
0.56,-0.362163771019344,0.774420332531516,0.0913449446572471,12.4807107081096,1.01470279974399,0.630735909396699,0.200827011771365,-0.373257209224269,0.169993631491326,8.97091462399334,-0.462841136947378,-3.15870333229123,-0.217759800552148,0.116785315034626,0.260059949330666,10.4107979503325,0.886362081193047,0.423343406039361,STAIR_UP
0.57,-0.632838420135344,0.990498566507303,0.105471978692293,13.7935479062621,1.68099148934369,1.67352161983232,0.247243975943296,-0.351111182596101,0.192230027235584,8.89675087023434,-0.377784410982504,-3.31667331712527,-0.329925457869308,0.161008893980372,0.248911372038404,10.6844116096968,0.628641940477585,0.705506872810294,STAIR_UP
0.58,-0.940090554250246,1.34100191299459,0.090346140257979,14.8725903136693,2.61375736309182,2.95983194873344,0.268312232605877,-0.327040284188579,0.207157029217133,8.88127743867408,-0.0869104629423079,-3.63792297076407,-0.426041557969398,0.200494596446962,0.222902678463702,11.0937418653657,0.366063455300289,0.458895248476855,STAIR_UP
0.59,-1.26425336798101,1.74516843210337,-0.0114156564354513,15.4403415742554,3.52169500074395,4.24351800592592,0.234229356824578,-0.281943515381601,0.217039053772096,8.82157707679078,0.488469078264936,-3.75693007941081,-0.403513256820453,0.243880721933643,0.161009068261621,11.3876169173976,0.300495715270092,0.408817758589972,STAIR_UP
0.6,-1.57830888776494,2.19409046704071,-0.128202821435986,15.8913849469765,3.08554592861612,5.7004028104349,0.157557752770671,-0.258627389592077,0.209231727534474,8.91708737114612,0.766750417418546,-3.68682466793358,-0.303346125642843,0.287520165841301,0.073753359555808,11.313834119509,0.315000510549758,0.738728853236884,STAIR_UP
0.61,-1.80275235155924,2.51721244934821,-0.191684162352076,16.2211245542061,1.97308754619585,6.68361475373822,0.0875030074187695,-0.262475840754651,0.199018912793466,8.92864827265183,0.68882830223607,-3.52306481530206,-0.214864337542811,0.318554614319893,-0.0276177265002077,11.1733765667848,0.290456990736044,1.27669253786554,STAIR_UP
0.62,-1.8826818679435,2.71421584701356,-0.156723373316043,17.1291360951969,0.701212720530851,6.90204610412689,0.011090966592416,-0.287038240025036,0.201452288928275,9.01830853233914,0.221326780599953,-3.35673902850314,-0.233774728348673,0.304052495392857,-0.116975005421331,11.0349714785973,0.215324204830042,1.74952477459733,STAIR_UP
0.63,-1.86137759038744,2.88719053128122,-0.102921555606143,18.1230476795796,-0.432167349782189,6.644949735621,-0.0869818669530348,-0.288836049284236,0.218490145674476,9.06558763911082,0.258852046516235,-3.57567135195399,-0.223901619791359,0.204179166908474,-0.185701273579797,10.7704578445027,0.172568059598694,1.36540097251146,STAIR_UP
0.64,-1.67873589851206,2.9879760255204,-0.0350950404739422,18.3348185586742,-1.28220320069474,5.66802447855621,-0.167650216623886,-0.255714429909731,0.244972640720378,8.72864720226959,0.464274195987065,-3.53920292158839,-0.0618543567895701,0.095311339359023,-0.219304726547875,10.0944549544816,0.50185792678483,0.582374759933361,STAIR_UP
0.65,-1.26565878323202,2.8904644072691,-0.0673642781128187,18.0034375037421,-1.52201992769984,4.32084440055374,-0.242587129056364,-0.278804849748135,0.236730941366819,8.52795914303482,0.354473799271513,-3.11709056472298,0.142708165098376,0.100934110341048,-0.225131188040415,9.54824570646856,0.945880589495026,-0.0331140512491637,STAIR_UP
0.66,-0.915194474234668,2.76594124059752,-0.172513583978266,17.1148208261103,-1.49642684894135,3.11097569437159,-0.32618756491526,-0.291063557910801,0.204480215815709,8.88131188967288,-0.285546232114299,-2.80597183482281,0.254768117795247,0.195480359210849,-0.212933946394547,9.2493785537037,1.41423761950442,-0.218034669962361,STAIR_UP
0.67,-0.72325044226087,2.67287436088944,-0.329778136013232,15.2276744620266,-1.34935345882379,1.79957426721443,-0.393617824742498,-0.30165289627888,0.170933684510387,9.73614104332984,-0.413201701099094,-2.57407769391576,0.309921367657752,0.26116045139678,-0.189653893825952,9.04844902071386,1.73715791130013,-0.481330086856248,STAIR_UP
0.68,-0.640469493880487,2.59740145906872,-0.566065465547858,13.4769066752842,-1.41993426255602,0.599903706795874,-0.476361058364708,-0.30239448188999,0.171633593232309,10.0391071411709,-0.571264317330615,-2.28499335158829,0.346403847382162,0.275073747347518,-0.154824450246653,8.94487469069951,1.95470371124186,-0.605397053064342,STAIR_UP
0.69,-0.627611244531694,2.53815640276816,-0.789985924926648,11.6725617576516,-2.28834697305408,-0.202182322651962,-0.536857382155526,-0.343664219559697,0.162289290166835,10.0254363717792,-1.35721467992681,-2.09393745411707,0.339359086377462,0.262941046888327,-0.131981378723044,9.1503420538362,2.0324521304148,-0.635737007496519,STAIR_UP
0.7,-0.568550314545147,2.45373819860413,-0.970154707810599,10.9536390220144,-3.61757956879688,-1.41079324583825,-0.580810041100485,-0.380473807717356,0.145151291055931,10.1815502230734,-2.46300589504187,-2.11818029883259,0.309049657760549,0.213021937755598,-0.110764780923179,9.52911148974853,2.17131564431777,-0.780278418334576,STAIR_UP
0.71,-0.460026240486455,2.6905683515814,-1.09269256460553,11.2622411856751,-3.50374602717094,-1.68700851807057,-0.578569457693599,-0.406674686196557,0.146342493650006,10.2110812615854,-2.77163569508495,-2.2631016094863,0.261017566306304,0.178336887238879,-0.104673951745378,10.0285500728132,2.33500383982839,-0.880997336619014,STAIR_UP
0.72,-0.342347362046625,3.13057918377953,-1.18294928510724,12.946483094063,-2.63207029780851,-1.37609417613233,-0.512820834414837,-0.395538897770219,0.144069838744125,9.80945172002675,-2.66989796513639,-2.26073125970405,0.175627472221119,0.186203688227675,-0.118949597336957,10.4740701259964,2.59432796469969,-0.73959364604753,STAIR_UP
0.73,-0.418605993285304,3.57286234623318,-1.10352625371598,13.9576017890177,-1.38211235404371,1.0889828610538,-0.4909663081734,-0.389863797699464,0.131600296811404,9.51533998927691,-2.59957658638981,-2.41993842080179,0.0904143655024905,0.207474268029253,-0.153700865240548,10.5912732022213,2.74490669239776,-0.51890079522508,STAIR_UP
0.74,-0.370006731068774,3.78791440232582,-0.931554165096772,13.9066110884567,-0.371599887571127,2.04740100698876,-0.514564115717517,-0.417989361048273,0.115696083304881,9.21968773692555,-2.1641947119386,-2.3473823760253,0.0423765742284512,0.204823704131054,-0.222056430929117,10.4419802165237,2.67917514454704,-0.409393825162155,STAIR_UP
0.75,-0.457348661904337,3.77769431874627,-0.69890541251455,13.3641678265016,0.738725478124997,1.88536783363582,-0.542928930458714,-0.453786434631343,0.103376315018476,9.28690396500757,-1.553900599443,-2.12017239589303,0.0141835895284093,0.197684023986111,-0.301129817286341,10.2672372531455,2.47054796070703,-0.395229905286721,STAIR_UP
0.76,-0.620843411112401,3.6694880627854,-0.498264894063542,10.6551917557115,1.28097989722011,1.29716558353153,-0.550346794911572,-0.479040321912906,0.102436172885811,9.25408995425052,-1.04470928512532,-2.02757969651568,0.000859196711835,0.187555172801302,-0.372741561555065,10.0470401081084,2.21125311845104,-0.437087767287901,STAIR_UP
0.77,-0.797028153874487,3.37149416332016,-0.393075262050348,8.73478184280111,0.0327489800961623,1.60236623167333,-0.565780696617125,-0.469386712309691,0.0851395085891185,9.27140463939194,-0.688531816711041,-1.89595015097198,-0.0069783833747393,0.151676892235417,-0.425691865711789,9.85037089464437,1.91360136695636,-0.325435595369239,STAIR_UP
0.78,-1.01516356355985,3.07869120988911,-0.40545065093941,8.36067138994893,-1.68998375544876,1.60309336821396,-0.641931560546609,-0.455199707804267,0.0841282598191583,9.39707249586094,-0.40233668560033,-1.58701874668142,-0.0405949207264629,0.105208633529935,-0.450953273957884,9.60544597367098,1.61791303807845,-0.393901090401876,STAIR_UP
0.79,-1.06340508494789,2.94056363516948,-0.480942712831341,7.58650180346675,-2.39972269809201,1.20914682272326,-0.715853074315758,-0.444531784978288,0.070586416351729,9.75922999388354,-0.597669676833059,-1.57608111887715,-0.0431161143937772,0.0952427261057532,-0.456922034604894,9.27629907547938,1.40692497434459,-0.475193144292219,STAIR_UP
0.8,-0.712621392179904,2.8653413251981,-0.5436500558451,7.09739074103231,-2.30500407511846,0.624565469595552,-0.73388429533342,-0.393953020699446,0.0996597663479609,10.1124324246139,-0.537763553483757,-1.72963295307606,-0.0683089681577413,0.103292456016698,-0.455442274975115,9.02520787837183,1.43863774197894,-0.260837841475267,STAIR_UP
0.81,-0.278053753445093,2.70713762398084,-0.527245907948031,6.28639680121203,-2.22027384960997,0.544198054514631,-0.748959906096801,-0.357586658637681,0.122479441099637,9.99306992636295,-0.298042034011163,-2.04983278361112,-0.0778073311817924,0.0976514237304021,-0.439953978155211,8.98835093987924,1.58954414537742,-0.181613403062186,STAIR_UP
0.82,-0.0531410354956689,2.48091415025092,-0.472755519815316,5.85510522665684,-1.94705994632386,0.799585922679806,-0.787039445148357,-0.327495679374295,0.134634989713199,9.67769562228848,-0.240741089446873,-2.28467021370395,-0.064558508894488,0.0858654551128283,-0.429352302849829,9.01812337639815,1.85715009389167,-0.183430138252274,STAIR_UP
0.83,0.0216502150004751,2.27263730145216,-0.448913480184039,5.73443857177101,-1.45114233047924,0.889924872805056,-0.832654964452425,-0.344158822537493,0.127211991544488,9.1649418624686,-0.19640562644442,-2.46790869051775,-0.0566557819490132,0.0775827679736747,-0.418068413383976,9.11103514558964,2.00388511075385,-0.0341354926415599,STAIR_UP
0.84,-0.0161723115574951,2.0637929083039,-0.419925989198135,5.90238268751794,-0.878302766142281,0.722706878599928,-0.891428399134262,-0.351659509026385,0.127236917384582,9.00235747055815,-0.591128098230551,-2.85512329160059,-0.0796917865075117,0.0727410563300548,-0.40466263717945,9.12722186235457,2.10156628511978,-0.161654772439995,STAIR_UP
0.85,-0.161820923130254,1.94033881686283,-0.390104144861219,5.44010711372128,0.0047141736063297,0.942662534461882,-0.924277052714719,-0.370062439260378,0.142994118437256,8.8592346381014,-0.850318674798262,-3.05960925596106,-0.0781767829325541,0.0844073717092604,-0.391875686111459,9.01815124592568,2.06532855867809,-0.523957856451257,STAIR_UP
0.86,-0.311018492937786,1.75060576943771,-0.342418877130065,4.34292362936835,-0.290176691958227,0.758441087061124,-0.92143025511025,-0.378192427905666,0.146349876160468,8.76006627573909,-0.700128449375841,-3.01922203888542,-0.0563564701198903,0.0693429100760639,-0.358328685080515,8.7926733046908,1.93451754458647,-0.711790914919171,STAIR_UP
0.87,-0.348214811548161,1.56535297076328,-0.316901365354603,3.73469178157632,-0.489677427784963,1.01089153298343,-0.907445854073903,-0.401057888980279,0.134484373823636,8.72889470035855,-0.515158298262398,-2.94979805712771,-0.0733458272958536,0.0625381621307415,-0.333222268484234,8.75418200579151,1.77636073099188,-0.843533902715908,STAIR_UP
0.88,-0.336418598013446,1.41731488253,-0.330670678131872,3.42434490598922,-0.194288330353375,1.24340279279036,-0.886363118294855,-0.428984654847584,0.0869514710510267,8.87059809445219,-0.543264120609431,-3.18661522705049,-0.0892861006183582,0.049390311804978,-0.310981575534681,8.8280459194276,1.72722476117927,-1.12218355630921,STAIR_UP
0.89,-0.390798495214621,1.26118185897767,-0.35573395342991,3.25891379740445,0.0522121283184261,1.12369063491649,-0.835307903928967,-0.449185451974237,0.0455984425755542,9.18841779180709,-0.500872374521365,-3.12074861179251,-0.0388973040843762,0.0377143500952898,-0.286807531182579,8.79681787089995,1.84890905198382,-0.995617706548369,STAIR_UP
0.9,-0.471898472706825,1.08856110474409,-0.374353683110602,3.13720082046755,0.515678770618418,1.29299957331657,-0.763122370115955,-0.480849425080263,0.0174510788118298,9.19622924378775,-0.357100036971457,-3.04936270532481,0.0068809819168893,0.0643397903377132,-0.267206867048196,8.87404032804428,2.01237629349597,-0.953297417718519,STAIR_UP
0.91,-0.498360883952045,0.8970206102611,-0.389572815519008,2.98143181149588,0.262755522034601,1.63504170292494,-0.694178988888506,-0.526231568937174,-0.0465524783188805,9.53554661502268,-0.445849360154576,-3.25380337429104,0.0384010383006101,0.107568251304009,-0.252114254295566,9.17697441993974,2.25285402265087,-0.943538358904452,STAIR_UP
0.92,-0.456040407097894,0.714428584432869,-0.372703372842902,2.93791033282933,0.0685400496867569,1.90684024993797,-0.647063073998013,-0.56514318353592,-0.112799738160876,9.8187094215699,-0.443701835955944,-3.50553925074682,0.0837683516665082,0.142343647875018,-0.234793920656858,9.37982768152395,2.50105518795346,-0.856431236819501,STAIR_UP
0.93,-0.377480071824236,0.555180915761702,-0.33366775179617,2.7991915455853,0.322305616127505,2.04583946637304,-0.569195460447131,-0.606010706950134,-0.162790827696719,9.60142804115226,-0.497311950573813,-3.48240689725818,0.107631886743897,0.178633873230441,-0.197558685252294,9.75140416415083,2.65173704240315,-0.520471843834639,STAIR_UP
0.94,-0.26073693582163,0.38876743191454,-0.333304805364221,2.70069043253389,1.03900743957331,2.43187111383194,-0.441805054719023,-0.606749829801664,-0.199666567934432,9.38000508537347,-0.479732990044041,-3.56354229162216,0.0689987978171571,0.20102947014821,-0.164487311527694,9.94283829537197,2.732657987997,-0.287028613869535,STAIR_UP
0.95,-0.202239086647323,0.215694601010557,-0.354425738802266,2.60955087955836,1.43882134913605,3.16742951493434,-0.308142125556801,-0.587874592330575,-0.223394743828076,9.37951271239385,-0.349805274446023,-3.64108237033238,0.0119189946579558,0.185330550712607,-0.114033408501565,9.99433712344443,2.77448939629409,-0.18929220600833,STAIR_UP
0.96,-0.285115599520282,0.0137116440640176,-0.389918762545372,2.63394249066753,1.32769143782687,3.65462519587254,-0.229057459729557,-0.573543241479514,-0.228804914088325,9.52658929110532,-0.421850860372925,-3.61170631041353,-0.0520228128921574,0.162482165358582,-0.0667765697272158,9.89266509292157,2.83105447457325,-0.247056916158112,STAIR_UP
0.97,-0.385381005834258,-0.199251020023218,-0.418008037119186,3.00750657394633,1.02826720508598,4.03533805380671,-0.202689598931413,-0.547431351824174,-0.196834436440247,9.62604639895508,-0.396082732389365,-3.77300964901468,-0.117779396712044,0.140718012846837,-0.0362688273928883,9.74286000760538,2.72727181264462,-0.283900334830058,STAIR_UP
0.98,-0.39165744193335,-0.383679367559522,-0.423990320167428,3.53339803213495,0.597832838468652,4.45937634006806,-0.19365715176333,-0.520553054788278,-0.158878227883284,9.82926769107099,-0.106673476020306,-3.85047525291022,-0.187631085919748,0.0938740214198519,-0.0241082334058905,9.67023123946898,2.56960759660929,-0.416346840400827,STAIR_UP
0.99,-0.338742629263285,-0.56862391318437,-0.414951534838856,3.92354340011703,0.264621196050946,5.07181336492747,-0.179874292094504,-0.486215059077216,-0.0996326024538682,9.71593541959888,0.29687405177813,-3.88679362380819,-0.241845815512645,0.0345544526212056,-0.0298385426499709,9.71488059939647,2.43421514466365,-0.826231356516192,STAIR_UP
1,-0.312381682552374,-0.73217664312113,-0.381963902395083,4.10792416756532,0.459909247945601,5.25054576662168,-0.179519807333689,-0.48608474191338,-0.051841199532645,9.67365038055886,0.514962258320444,-3.5501339089722,-0.279351388309943,0.0117597683362603,-0.0401619366703848,9.72842814979,2.32804616751737,-1.05649613551451,STAIR_UP
1.01,-0.324411520628784,-0.865130106581596,-0.364665694778151,4.32983986867318,1.01555899119324,5.16344175250527,-0.24721744512483,-0.472774077105515,-0.0233767254625107,10.2593484094528,0.940063622445372,-3.2495857329456,-0.294421654479943,-0.0097784338452587,-0.0565746331057962,9.91468182459001,2.42512229403243,-1.19962293187773,STAIR_UP
1.02,-0.361678388514636,-1.02870088874197,-0.334960959815838,4.83565038160874,1.56336205730463,4.94787073663524,-0.35083212090097,-0.43014248894844,-0.0156108496562112,10.7325236438779,1.12899553569608,-3.04334722114421,-0.281591942781425,-0.019396719036853,-0.0612718322259251,10.2658570743659,2.74186348049537,-1.22503934837996,STAIR_UP
1.03,-0.358470041640294,-1.1481095947333,-0.302036471178304,5.737234102343,1.85318377298757,4.49041992521092,-0.443066120350173,-0.369058151736269,-0.0080494887338197,10.8037089869167,1.22954756817772,-2.57865691893245,-0.274194309648505,0.0038193278867322,-0.0546359864282946,10.7322517176901,3.07464602218026,-1.04232191512045,STAIR_UP
1.04,-0.34592100006351,-1.24420901329612,-0.266726650340886,6.69889911186475,1.71057437651229,3.90539655107139,-0.516243381301689,-0.314152855003685,-0.0267642596422402,10.6991974757123,0.940260572282616,-2.49494145634474,-0.275835762530001,0.0278579502909504,-0.0360920005426557,11.1732801248426,3.27151753957103,-0.741410170879623,STAIR_UP
1.05,-0.389692305222147,-1.30709610182171,-0.245914536533416,7.30930229690358,0.988912961699932,3.60154539197825,-0.54850640828802,-0.25221451896606,-0.0867111872348995,11.7895541116084,0.832488732739037,-2.53094018383502,-0.323654557433345,0.023724198174083,-0.0114152755985969,11.7840820402624,3.4300218115375,-0.413909310535002,STAIR_UP
1.06,-0.409596187918819,-1.45195737640436,-0.23544889946709,7.44172285312254,0.325511886082511,2.98552503420115,-0.546439325670051,-0.0999372804902589,-0.116398292038511,12.997430837467,0.724560822816951,-2.48453736489905,-0.380116930764996,0.0123120667339405,0.0119057571393512,12.3277785052079,3.607057210752,-0.504586259632236,STAIR_UP
1.07,-0.443206560960812,-1.50531630912286,-0.261202204308838,7.59623240874526,-0.282723354130115,3.58413401027567,-0.546708301849086,0.0895541428795265,-0.0923208100182747,13.6545103600616,0.241568164136738,-2.68547220449669,-0.411720162313041,0.0376091585432521,0.0435081567942664,12.9404795584952,3.68020422386288,-0.596818737882126,STAIR_UP
1.08,-0.512476818381838,-1.15035675854067,-0.336963176425523,8.39781532469168,-1.36497995070551,7.45038253316068,-0.591213654304965,0.244706799839106,-0.0736174678046633,13.9020576753753,-0.433319180652192,-2.98158260922489,-0.441964205432034,0.0640746563996634,0.0667246385206325,13.4331229437557,3.46349597403456,-0.489275861397196,STAIR_UP
1.09,-0.522811409071555,-0.889950135537547,-0.588726351697251,10.1009357879505,-3.01063826410814,10.6851756668138,-0.610171761797777,0.25827216363513,-0.0870468628285664,13.8994151062107,-0.428520016504278,-3.34266978087155,-0.430860132376793,0.11058408424828,0.0799242336368086,13.9685785516982,3.17159616464209,0.182487091240581,STAIR_UP
1.1,-0.410507979222027,-0.777778210349662,-0.838926241759774,14.1310595297196,-3.91782088585808,13.2437357801282,-0.587452642283551,0.249336908290979,-0.11731927694568,14.1411749515499,-0.187961037222018,-3.63420102448192,-0.428806171766103,0.162620191372331,0.0803915525570241,14.2594222788855,3.00151008460924,0.541250030686388,STAIR_UP
1.11,0.157230070340464,-1.0413564619058,-0.919630727465392,16.3096191273161,-3.7875862457504,11.2377513707541,-0.493213312768475,0.273129136380338,-0.140637449556096,14.0901853964898,-0.427357833015598,-3.32419891697818,-0.37420635858583,0.220488721800572,0.0674050490822856,14.442731557843,2.59488843563649,0.0368113935886017,STAIR_UP
1.12,0.544195114336298,-1.65059652148554,-0.744978641349585,17.2448694138633,-3.89924842705704,6.85122034798506,-0.411427108875295,0.295254799178282,-0.168647870738865,13.9463195957719,-0.597998206734762,-2.9287592835742,-0.262935754553225,0.268501441429039,0.0625942254752307,14.4721256246998,2.17960065734579,1.10213820481198,STAIR_UP
1.13,0.835778395191277,-1.86128406249758,-0.590792205106427,14.9668767750207,-3.89185787283324,5.04066106903962,-0.323024348289451,0.351143440478783,-0.20587126223751,14.356293543032,-0.835903106645101,-2.64580484762716,-0.200018792158516,0.253418180556631,0.0465747296624294,14.310253386887,2.00802495999601,1.3331817079279,STAIR_UP
1.14,1.09617931397983,-2.03177216246365,-0.47603673246037,11.0547201276311,-4.33070123051452,4.79083311016886,-0.156160660782477,0.486822488498817,-0.229238087734328,15.1370100078872,-0.72359662490408,-2.10722110548144,-0.0414460710479755,0.209528338462292,0.0513214548180249,13.7336170859657,2.13750466744482,0.735231530751164,STAIR_UP
1.15,1.22831439968409,-2.44365572946213,-0.389399506113588,8.37022846498578,-3.86406426804451,2.54298124604655,0.028815212699795,0.696469806856865,-0.205614420058635,16.0325195966822,-0.628343773282445,-1.12626172795541,0.109366048542237,0.17072110323671,0.0955987052403729,13.2954486728651,2.15854727108477,0.687042611412939,STAIR_UP
1.16,1.35372668020676,-2.6638029524472,-0.3088889888279,6.63447991780546,-4.19696078547808,-0.280201859761037,0.186760159584631,0.936935620400392,-0.144168209688638,16.8082635610261,-0.673240966304603,0.252644528776369,0.152567711241914,0.104087432622969,0.164712088865114,12.5818326022991,2.4617494714888,0.941502115601718,STAIR_UP
1.17,1.38891216294652,-2.64635411492961,-0.299698590196978,5.85076039104549,-3.14213861718261,-1.39627869683111,0.332780053303382,1.19259851564495,-0.0547631215338506,17.4422485225097,-0.928168334596817,2.00453261099211,0.087524873913321,-0.0155706751244099,0.207928804032371,12.1163080959061,2.80955193536388,0.937025948074649,STAIR_UP
1.18,1.62621985650456,-2.47439612899568,-0.374710186673454,6.42662274810233,0.594510378896792,0.251035572861563,0.422639801122342,1.49955685384098,0.0893461441765788,17.786602629493,-1.05419327845362,4.01912747424875,-0.0924231185820093,-0.2124959247164,0.226982773790698,11.9016478925631,3.29561396677313,0.700974030576034,STAIR_UP
1.19,1.46555472266091,-2.23333423075044,-0.467867890181292,8.3514377290784,4.26244983268062,1.46450258109785,0.46095689750322,1.84218724340209,0.300739601410538,17.6789513117602,-0.888209272231948,5.66213073926989,-0.258179788327125,-0.286978964980295,0.219992738000732,11.4262593165588,3.5802878644922,0.620065531440351,STAIR_UP
1.2,1.19333360652109,-2.00796670871273,-0.454908776847203,11.155389790336,5.6551042634908,1.6887172428975,0.42135847907622,2.17090430510347,0.528669859284019,16.7281885679056,-0.484271335193353,6.84975243175746,-0.337658385092016,-0.165129878777333,0.227663976910354,10.7235958453582,3.49260323434788,1.16175284021267,STAIR_UP
1.21,0.802966415894497,-1.8689666649608,-0.317930828040862,13.4774971979906,5.0866940514552,1.40035474573527,0.309407413567832,2.50986524719116,0.680202494646228,15.2259507279307,-0.570404457736486,8.04616693584777,-0.399381141543561,-0.0605337218264712,0.221473307527261,9.63660408090921,3.03076089797811,2.49074295310599,STAIR_UP
1.22,0.458988235756563,-1.83393779776865,-0.0921994560658585,13.9408941828202,3.80438447807369,1.67260860758489,0.213022779373521,2.93397694761823,0.731501804510701,14.428881723802,-1.41133272301684,8.99527892993225,-0.492639787601195,-0.0664954884930877,0.215721522789843,8.77480901517703,2.2814726827027,3.4104149832548,STAIR_UP
1.23,0.193962573786273,-1.79790849504928,0.154773561075658,12.7178892116073,3.12450732871341,2.13250587945147,-0.0808609927699765,3.28708579020503,0.698202830875626,14.6854898899844,-2.39294039282488,7.80830310997262,-0.517049856719876,-0.0846365291239147,0.226432240707846,7.86863741795083,1.72978785331124,3.20217719493963,STAIR_UP
1.24,0.144033209739484,-1.82478258148853,0.323536096040874,10.9903322834791,2.46963945627904,2.50825367643931,-0.584434585236665,3.34106520234093,0.621021482858134,16.0110690286342,-3.65120345402712,4.4042667169561,-0.444204527126186,-0.0656933657292758,0.247586347351206,7.13335134009123,1.33879888213803,2.45074340680647,STAIR_UP
1.25,0.319075204417149,-1.91106571054068,0.38527769005718,9.46361030497585,1.46519998363096,2.01039786404552,-0.710835516257021,3.49284716848086,0.575887025168082,17.0896761583969,-5.6126363562137,-0.132293195474501,-0.368726246135943,-0.0096969036255443,0.270940355232372,6.86438607506506,0.722658763612313,2.53530893740676,STAIR_UP
1.26,0.569765403507367,-1.96007716089336,0.301621716536671,8.65780674696821,1.44577710685343,1.44223114510519,-0.0770524583379589,3.63345593545219,0.683083084591524,17.4473548553635,-6.74965028083908,-3.96844361077152,-0.393792318147993,-0.0016935751653361,0.278066288531872,6.76275622009942,0.216322237420308,2.14402349748004,STAIR_UP
1.27,0.887713134786174,-2.07228052805695,0.19516259547245,8.46904063072696,2.13303595730941,1.52916723746966,1.14976975681351,3.51596529714926,0.837258671443516,17.3687590960386,-6.43356369808496,-5.62842509609331,-0.407844094824728,0.0193959198751538,0.277094657573112,6.67956908440456,-0.0207924261811264,1.65747180631537,STAIR_UP
1.28,0.989454987727619,-2.09821267515439,0.112244117598994,8.86083846848948,2.56967960730191,1.05504600295888,2.28819054703646,3.67677700428721,0.99513335650964,16.1892291865888,-5.15097505525727,-5.60917910698042,-0.422218968053953,0.0881952534936916,0.257632807698246,6.88030927063488,-0.191029493998024,1.60517203792128,STAIR_UP
1.29,1.04015281576894,-2.04274483574384,0.0293913947661276,9.56288315889771,3.22071909875227,0.444684862358337,2.75041905596385,3.63913262055015,0.99426077976704,15.8876405643134,-3.11477766437925,-5.21411359712883,-0.441390696659283,0.1308091153862,0.237359422571263,7.14564303060547,-0.265787963925556,1.64206091381152,STAIR_UP
1.3,1.01318293276752,-1.97465022824025,-0.0192692097161889,9.6317646057903,3.46225236041566,1.03760520248265,2.61142059547392,3.82111438810987,0.862909735162338,15.255465198472,-1.6908204284877,-4.05452704372441,-0.436874313631473,0.150443590022323,0.220526059237786,7.57348784465292,-0.070698196068698,1.56486851183446,STAIR_UP
1.31,0.793580489471022,-1.91143621935478,0.0026426289277897,9.56806040920783,2.83641136518099,1.06827168113694,2.36471014887443,4.08134913668791,0.653630684802499,14.3908037939506,0.506590188215297,-4.3224939945533,-0.409344424913298,0.138143197427601,0.213154582245003,7.96637730671194,0.181282231715898,1.55263336501319,STAIR_UP
1.32,0.632224932726475,-1.82397647801834,0.0572910348557761,9.80732714088374,2.05207575172865,1.26339057145148,2.10015209708968,4.24323647237433,0.473508760946138,12.9834363705846,2.53841923351355,-5.21661202824789,-0.385891873889084,0.0860664432591084,0.223513932845717,8.33856369221254,0.569683675288009,1.52678053910513,STAIR_UP
1.33,0.521130318685546,-1.75507284129708,0.107882097947958,9.60443332593736,1.03165904453201,1.17771029904157,1.73366658219455,4.17101109976992,0.215343950569382,11.7630616541894,3.62900098065952,-5.44951234473744,-0.339839068083851,0.0229645635271676,0.268063082678261,8.71567672667676,0.814036811538271,1.25454966777526,STAIR_UP
1.34,0.478545231381833,-1.71960467018815,0.171626649829567,9.75845616212315,0.392022113916459,1.26579310472896,1.42216096888904,3.97230928065296,-0.0820959444368397,13.1011781960356,4.03651075280402,-5.67804881098517,-0.269792975746489,0.00142577410862,0.344459023995013,9.06720002175141,0.873586225823979,1.04136992791305,STAIR_UP
1.35,0.559370364981633,-1.66179466827897,0.20209231130985,9.67884965310002,-0.322320569549825,0.948422247299556,1.30699500137731,3.97799546058586,-0.19475217113873,14.0756166599454,3.30057470766719,-4.75442849761718,-0.210845686475814,0.0162793402305391,0.437935489985974,9.27157169269091,0.838524310031649,1.07011637364126,STAIR_UP
1.36,0.695069918740838,-1.60185630267506,0.232290019141845,9.56887055311681,-0.153857391788367,0.811151824549328,1.19031005665411,4.21672948591745,-0.0665596179959704,12.9609785441982,2.56546676681554,-3.86394988843538,-0.172319109565335,0.0083115925855239,0.522557530531076,9.23216990219719,0.735379818280739,1.09016096199503,STAIR_UP
1.37,0.812463536861612,-1.57291971370824,0.285184534588507,9.74196862497501,0.197554857139532,0.955958533214189,0.961513156521246,4.27849578359225,0.0557297967994541,10.62442815948,2.4403830119392,-2.97011707493266,-0.167298493096262,-0.0285755809089485,0.582561915905939,9.03335007306443,0.659146922658884,1.05547689990644,STAIR_UP
1.38,0.925217772697459,-1.53886773973627,0.303645395051549,9.45697329905314,0.0925649418540941,0.464368820812845,0.728110982375523,4.02257544693266,0.091092903713816,9.63390676299175,2.39755152911691,-2.02405204706029,-0.182793182533516,-0.059263207329344,0.593222246851797,8.73266205802264,0.554454893776101,0.91042473706255,STAIR_UP
1.39,1.05161037277479,-1.49087489930567,0.3163568098767,9.25743244551482,0.289667453839479,0.166091859278949,0.420406341154338,3.91178676610814,0.207627313856375,9.51714192086167,2.56848162621286,-2.28023287395073,-0.215316395604074,-0.0256935335610862,0.565948098352814,8.37753468195045,0.374153142312506,0.714205927450405,STAIR_UP
1.4,1.10194987346608,-1.45554476452357,0.338857862683245,9.24956971427603,0.760904498514877,-0.0484766815771787,0.234813613991368,3.75362106056427,0.320173381525316,8.19422046052544,2.66409809066984,-1.96199214628361,-0.244490682067003,0.0292010814133262,0.50749445231847,8.1082116133432,0.0866191712059814,0.654213607095576,STAIR_UP
1.41,1.15763113735153,-1.49810247859263,0.380152110566476,9.78811150405026,1.4720746085528,-0.299669154512143,0.115482907186208,3.43739422774508,0.389843055850644,6.90406309810449,2.42718766532086,-1.04861294174148,-0.279981321890348,0.0843072184579787,0.433407607094209,7.98246148876042,-0.250626364198477,0.831839034195068,STAIR_UP
1.42,1.1752414352646,-1.51401795966434,0.404356039900174,9.97190670587182,1.64107226566059,-0.439595607613933,-0.138736259147564,3.16766103124702,0.432526870840758,6.58084698447629,1.88120099924475,-1.20900280300094,-0.338127393264932,0.134085075757289,0.368786974936188,8.1020117670731,-0.575684216063963,1.06170381034068,STAIR_UP
1.43,1.13538095198147,-1.55897411685832,0.382914566587869,9.77259648138822,1.64767266717863,-0.520260148429463,-0.331106210683288,3.06727142718509,0.440416003112213,6.6079660890803,0.764820830078228,-1.98957051475852,-0.396149137880314,0.140933616586518,0.301568089449657,8.3664104034528,-0.725671832364966,0.970274428406362,STAIR_UP
1.44,1.12761608178855,-1.58046543972485,0.356593893847609,9.56875942308488,1.61235125570472,-0.441187366134823,-0.315098098436243,2.94732333773179,0.41433209656647,6.65970494867924,-0.201876292241441,-2.3917007162323,-0.422634602921174,0.125804695900533,0.248054204887235,8.40798464083683,-0.712353264507718,0.872283517127127,STAIR_UP
1.45,1.1638881164217,-1.58983045558835,0.330790433755603,9.25891474169349,1.28064350272067,-0.145247784629707,-0.122469468061114,2.74346207500212,0.317704530298611,6.80044800451662,-1.04915715831752,-2.60621776263994,-0.413507306473025,0.119020277296976,0.193580627637268,8.35436539304462,-0.524015721013253,0.713494342945735,STAIR_UP
1.46,1.23545855161295,-1.59161264358009,0.333386020667815,9.29866185777096,1.24596824500285,0.313512624669247,0.224855529886407,2.57195173634507,0.204673483188757,7.08227136453295,-1.36145589261563,-2.53912421641513,-0.398354890407518,0.134475470666227,0.149021136306795,8.14856524104089,-0.402617635055655,0.88561366770244,STAIR_UP
1.47,1.25999551627578,-1.55281889781159,0.360777587037581,9.51888618770037,1.37058984708403,0.191196863618476,0.576971012524567,2.45393656667197,0.153613705238147,6.93484101181199,-1.2431769389559,-2.60053942514182,-0.419872081693142,0.148906168139472,0.115508251092037,8.1798319710915,-0.26712386295769,0.912041275534705,STAIR_UP
1.48,1.31991139266541,-1.49409122190828,0.3665496524764,9.7605890382143,1.82469882525859,0.10116449055668,0.873790379860392,2.31174527129248,0.124852205528383,5.77421315527496,-0.914066881550791,-2.61969075368018,-0.427957975873232,0.174262517518836,0.111365679814558,8.26617055059753,-0.066914305203792,0.905473862838699,STAIR_UP
1.49,1.32293949239662,-1.39329232673959,0.337847462268975,10.0325768537522,2.00220480886148,0.555259736255634,1.1395239748182,2.13740719679891,0.100689937544219,4.76724806315281,-0.282199293844525,-2.52216263293417,-0.405207989894939,0.200845253244739,0.148046475872994,8.38947289644329,0.178699233738893,0.909566011163624,STAIR_UP
1.5,1.24693134594603,-1.27624921763155,0.318916299073164,10.0375896627753,1.50665414555004,0.646327910237787,1.32968442759815,2.00072992445373,0.0938796114758302,4.01034851755832,0.495881339887967,-2.22704266378319,-0.382391873492938,0.19919310838787,0.195897395705414,8.51777758759584,0.285442607979008,1.03506809151719,STAIR_UP
1.51,1.24011547864188,-1.17176994880169,0.318823466293149,9.77103376066811,1.19673460597426,0.317737553349025,1.37718945889005,1.83602416103258,0.0875151690920663,3.03765880791988,1.04391645676735,-1.87341160202444,-0.389738270339124,0.183476022033387,0.254371884869167,8.69492121827457,0.134146574602646,1.05105691906819,STAIR_UP
1.52,1.22522660120553,-1.09495240136861,0.338161591682845,9.88358295767521,0.768638361742563,-0.0659748420752311,1.21379167175908,1.59362673488431,0.123446927758251,2.12350233767394,1.29203859631877,-1.24682510438869,-0.379090586106702,0.172706970316115,0.312783919563611,8.87832724891405,-0.0365668328772872,1.03437196395126,STAIR_UP
1.53,1.13364374478614,-1.03784901918194,0.360140277254008,10.1285979452265,1.02716803106217,-0.379857827057721,0.952699681148224,1.31692453325215,0.159250937573363,1.58016270672973,1.05413879939931,-0.842419251952945,-0.363816564685932,0.146632936774981,0.36099606138564,9.17628567294628,-0.267645240238438,1.10236914921232,STAIR_UP
1.54,1.17565286480094,-0.997485397590759,0.37375988423621,10.1567337583149,1.14221337364477,-0.690020321259142,0.865012002683148,1.03683761050574,0.170742130955643,1.31959180204021,0.857373053719148,-0.788578617552272,-0.32510969164053,0.123046516761998,0.401811187123817,9.45380744679908,-0.488206494208724,1.07972312498832,STAIR_UP
1.55,1.23053213508175,-0.960843200844256,0.390973226945014,10.8189207779878,1.04746397214719,-1.21136472066488,0.854631222133599,0.761314847842654,0.141309862378093,1.57350213838008,0.759340508888215,-0.721667124990952,-0.291471162679723,0.1167980758243,0.416075046861466,9.81990867572047,-0.488179722785075,0.90356276001434,STAIR_UP
1.56,1.23152576825172,-0.92590035237176,0.409393598572516,11.263329493498,1.57451144946775,-2.1982945893917,0.74839580546143,0.534439667521993,0.133332320364753,1.77697841528373,0.770459862973845,0.0160408442179133,-0.254511843962281,0.0980467956762847,0.418146972135277,10.2422256834405,-0.543255596295669,0.990445889920987,STAIR_UP
1.57,1.18522711012098,-0.943305213102006,0.409780390969084,11.2031885841564,2.55933390331097,-3.31762071391491,0.598208511096089,0.253647891447198,0.146076512765882,2.3821693057718,0.62102944432683,1.02722714374595,-0.25070027300248,0.0922546956398424,0.407593030415684,10.5384615151585,-0.631101890427896,0.947664756003944,STAIR_UP
1.58,1.13423131480612,-0.995414708207551,0.429293392250405,11.052632975543,3.42461089976066,-4.48200461368949,0.511053426321013,-0.0175145447125351,0.18166879848216,2.4732639100192,0.462154983335658,1.66356048219655,-0.298651237509399,0.108231098997794,0.364596728788789,10.7815379208794,-0.677937179870308,0.782089629000057,STAIR_UP
1.59,0.912299345697026,-1.04542693824518,0.503478807262872,11.3166282303865,3.62447193302164,-4.9089690702225,0.506229796919034,-0.330384589945797,0.251540677712213,2.57859323057802,0.64394989044045,2.04071729878252,-0.320236658964468,0.0983207608634665,0.328938245123592,11.0713289485054,-0.550648343696811,0.480227553100116,STAIR_UP
1.6,0.596656605328787,-1.07008534679212,0.59526929275202,12.0376566203346,3.07447131839656,-4.32607737629368,0.493239270466228,-0.652416458788413,0.357713281004181,3.10279779864549,0.526168115036671,2.36622685573485,-0.294472860238314,0.0866705424030866,0.297580585825833,11.3514524367078,-0.623584309366343,0.259723161473388,STAIR_UP
1.61,0.224368836152514,-1.06500643404501,0.675759298294561,12.7098720774415,1.85865587021615,-3.22649832190303,0.462910935383034,-0.907192991604575,0.457474845282542,3.59568960334097,0.0707224858859762,2.76705341139079,-0.250598687571005,0.101489542456381,0.259769122065703,11.8048131444548,-0.653547953667207,-0.0343723768093139,STAIR_UP
1.62,-0.020609200219083,-1.01097769649166,0.746928835420419,13.485927602097,1.15577589237668,-2.71394739113658,0.250556530449569,-1.16997874087851,0.482124219512304,4.07830369208355,-0.65715569094475,3.48618573229189,-0.194963707211735,0.0878388101626276,0.21112591536209,12.1531529329909,-0.755314769806931,-0.0911784023776225,STAIR_UP
1.63,-0.0659519239555308,-0.942360621699062,0.792111777067803,14.4694241394752,1.438543733075,-1.85909138830803,-0.0242472771415048,-1.43995538410356,0.47429941497177,4.89844407342455,-1.14427916848589,3.83478366104156,-0.18394000852893,0.0703602285763906,0.147102857476742,12.5103184540914,-0.951446387900299,0.0445594346540725,STAIR_UP
1.64,-0.0766646123274681,-0.806747956144508,0.769244613779589,15.1778446965596,1.50556570879938,-0.765593273545568,-0.102535924321331,-1.79283650006363,0.429433986199586,5.38252647229899,-1.54589266936654,2.82561040732796,-0.192397691570348,0.104661862760146,0.0749476313011565,12.9378161661318,-1.26820496396816,0.247471234787231,STAIR_UP
1.65,-0.136026611343857,-0.639703026706856,0.704207267903685,15.7450272975394,1.00220168440519,0.322921149746381,-0.0434647481039845,-2.25653772011515,0.340865281261062,5.75636439181671,-1.10475252845987,1.33996893371589,-0.174130287638752,0.175943743870533,-0.0039430060381501,13.5782003829802,-1.62037434243912,0.425417659288972,STAIR_UP
1.66,-0.207456604852994,-0.438207546352869,0.605656433076919,16.5843707476671,0.431232576675446,1.34862230442417,0.0971313577595763,-2.60492382322808,0.28681336795041,6.75244574817911,0.209917402366929,0.288738613403225,-0.0986986858221799,0.241016096128676,-0.0750273603182963,14.1181733737579,-1.99704718251537,0.871712795610284,STAIR_UP
1.67,-0.209927881224619,-0.193822686947626,0.52534000470243,16.8915841159762,-0.500042982031758,2.56067912317449,0.1337346348244,-2.55269933681172,0.369210736026526,8.92291455151006,1.80243222149123,3.16833582520894,-0.0097493341322275,0.275568652036493,-0.133211504087002,14.6336323155437,-2.34795948946953,1.41169013330616,STAIR_UP
1.68,-0.160342940743455,0.0282300882432842,0.46980829310312,16.8166951186032,-1.01634773385708,3.02352418434122,0.102793934515889,-2.54658190866644,0.663540304068306,9.69801924769221,3.79937710990391,6.6297017109322,0.0208837023601776,0.318066989316787,-0.170602073808859,15.0355547833174,-2.89150429890677,2.16822745512968,STAIR_UP
1.69,-0.0000776670710831,0.213739312678964,0.427744110129356,16.4308877166098,-0.59525059979193,3.16829151902229,-0.0980059123377855,-3.11100938779722,0.840540997391018,14.0787106205849,2.58029726916316,2.39685035379178,-0.0934620969785261,0.447511338062879,-0.128374224461469,16.1329915237826,-3.20397967874019,4.19485159125364,STAIR_UP
1.7,0.217168906775432,0.407730509663538,0.377969431951719,16.1918885089644,0.624816167656262,3.4359348858485,-0.491844083327349,-3.04672154607911,1.01644932907644,16.3498622707977,2.30532303800742,-2.80501136745024,0.2491415300388,0.136562135505266,0.0628589713541869,15.8089591878804,-2.92613528728887,4.41715697192756,STAIR_UP
1.71,0.358664593005706,0.650217090780196,0.27861015734791,16.0115445801609,1.84447242104573,4.14967468747958,-1.34687646944625,-2.66972161953119,1.31253419854101,19.4162423701564,-0.47901156293176,4.69935090095621,0.675281955149029,-0.18906061497572,0.17624907457292,14.7390225441917,-2.18910290393996,3.7645101276653,STAIR_UP
1.72,0.332615326885943,0.963230876921072,0.122974189921902,15.4219017312811,2.7667708944292,4.91086819509893,-1.09440637643706,-2.49794729556769,1.54786616189941,18.6360654221225,-3.27551983325862,11.170255460725,0.795720832289793,-0.135407114626806,0.217186719451078,12.6555966216484,-1.00966776876791,4.99868042246483,STAIR_UP
1.73,0.14753735995883,1.2961856558623,-0.0403218293580164,14.6557264763344,3.14151419509372,5.38049356700807,-0.472664784464285,-2.95211293919481,1.34908993934951,18.9121767554165,-7.956780591196,6.23960776135421,0.739428889580111,-0.156556969514558,0.227269275983518,10.3761966763465,0.193823807786301,3.89787629866844,STAIR_UP
1.74,-0.0295573390406329,1.63234210894518,-0.18114871933,13.967456047457,3.0168226057164,5.68098083127131,-0.168200771013703,-3.02343970536814,0.700422122443936,18.3952457141728,-1.91703134121661,1.18443099734824,0.866618464858825,-0.302863291452183,0.231510558121301,8.17701645779033,1.02220884127145,2.83903184201866,STAIR_UP
1.75,-0.094574855930144,1.94266794140964,-0.281882600223308,14.7199715797498,2.64462688471945,6.3496983697373,0.481602518389909,-3.28745277759114,0.172374607754061,13.4900641050571,-1.11136897743527,0.190429224679045,0.921767048854589,-0.308887163794114,0.138022928577776,6.18137812080669,1.20773681091573,2.42735200415441,STAIR_UP
1.76,-0.0823378608616697,2.30747253130465,-0.385879194501131,17.0081070830232,3.80444926306426,7.73792625809073,0.560209758991674,-3.04386501196084,-0.179348706009118,9.19593492006506,-1.0823120450496,-0.607105640065379,0.828803587861774,-0.148087874044353,-0.0147719255165385,4.40989830900732,0.535488758916128,2.35352054964131,STAIR_UP
1.77,-0.108086949550582,2.60081070280353,-0.614705610947754,18.7140996181821,5.87576776869777,8.11586232491523,0.648655317265862,-2.48642382852746,-0.22233622353638,4.60437656831445,0.0729806423602278,1.26833894081669,0.741458603035459,-0.0337786783638356,-0.169642454424177,3.59605693728725,-0.0077445547662923,2.96591599515917,STAIR_UP
1.78,-0.280261680567513,2.61427309122047,-0.908352843237766,18.3991064990007,8.68391611902839,7.87288443783487,0.630193325125331,-2.15343584971385,-0.147478244799074,2.5625785468408,1.93735937475295,2.70023840673129,0.719435185527298,0.056217902992362,-0.306085589062071,3.96819862421713,0.177451380467363,3.40634774108603,STAIR_UP
1.79,-0.459091303458086,2.63060330351781,-1.28992410004285,15.9717828700054,11.0290774030632,6.74360479142568,0.272537669289303,-1.84660365215885,-0.0098662378113119,3.84781654498341,3.11613702319531,3.05471624082441,0.754078226229831,0.102779650707837,-0.439500920919206,4.9191712327846,0.319105631852694,2.68038043803571,STAIR_UP
1.8,-0.943745654893508,2.44172713627677,-1.63523811403757,12.568669124131,10.9339134076986,3.08848971808067,-0.165431378058479,-1.60824061213249,0.159961868012883,5.86408917193327,3.25589488504105,2.5755894398295,0.830344554137906,0.13106004471235,-0.572279848835437,6.03866381522583,0.403073567370125,1.67336384643245,STAIR_UP
1.81,-2.09757901790626,1.99565952303349,-1.44304891788756,14.4255508892652,3.9123598381101,-2.21685236783485,-0.539827932625945,-1.51555954170128,0.211952722344955,7.23912037080126,3.02636817697578,2.16290852254749,0.926652452860518,0.138276492707416,-0.675419068255592,7.08454479292845,0.48507656722087,1.28483694600687,STAIR_UP
1.82,-2.85709551471391,2.44395175802295,-1.13961864343029,15.9572157517911,-2.21846509148231,-2.83412748990563,-1.04183223797891,-1.60467974382756,0.17913454855196,9.49969993504506,2.30883105150887,1.7692004871949,0.986910909944148,0.13973095261033,-0.695753842433979,7.86078558564412,0.63438882265924,1.49700150122758,STAIR_UP
1.83,-2.56152841629384,3.25682633202067,-1.0110594873693,14.7430823402523,-4.4305233452712,-4.6893732553564,-1.52288058259905,-1.80723525268752,0.168166775886913,12.2763272046193,0.714064000006999,1.22646308431512,1.03790379761881,0.12465283805906,-0.617576809207627,8.25077556925178,0.742527639683259,1.61912263226408,STAIR_UP
1.84,-1.98215313573169,3.48875226436926,-0.808125399288167,13.2443645293838,-1.62541345408125,-4.2913024697601,-1.78395745314006,-2.02106996132133,0.150179276529272,13.747763760652,-1.04041176670598,0.503475403477804,1.00932148675869,0.0682317038791386,-0.445356661831143,8.44912256114401,1.07093802853682,1.4095927805295,STAIR_UP
1.85,-1.67637799442292,3.65056765799958,-0.600478439370119,12.3102350358168,-1.096706573613,-4.46484301216363,-1.82648283305732,-2.09883341472364,0.110312023067321,13.242075822912,-2.77661733598286,0.615621944753802,0.989339623826665,-0.0134918816172106,-0.244312869469349,8.50385646254317,1.61735834504845,1.2243908853197,STAIR_UP
1.86,-1.29735502884794,3.72372519463085,-0.421810441735357,12.7033237953729,-1.20353464030723,-6.09147643280529,-1.73088548054037,-2.08885458140321,0.102122030418052,11.1289552967495,-3.65368329056789,0.499009874813483,0.928753967614954,-0.104532292808575,-0.0900720515151591,8.38150864142986,2.23102572684426,1.04921612909649,STAIR_UP
1.87,-1.12706570493774,4.24652316048786,-0.350613096224858,15.1871484642516,-1.35806175174182,-8.20617423386451,-1.5320228068922,-2.09896933294125,0.12468011561352,9.28780415260117,-3.31372370377549,0.574654275735753,0.849586059158737,-0.150246985659452,-0.0239279322088878,8.13533242537,2.80516910162165,0.820521013920551,STAIR_UP
1.88,-1.54111819904818,4.85904271156716,-0.510869928367263,14.4457116646981,-0.583572041550923,-6.86814729166268,-1.37741551593582,-2.05121921352207,0.145849880471871,8.90953595280214,-3.47565227911041,0.0251815534518213,0.766729116733691,-0.176205087995054,-0.0459006662176205,7.95564532378222,3.1133967819704,0.871692146999939,STAIR_UP
1.89,-1.90132020718353,4.97273158871798,-0.630546379569049,11.0006195400546,-2.0617209292003,-2.92327992977979,-1.24585792794707,-1.95361699867126,0.119823739334301,8.7958166103076,-2.61601218889403,0.006705569236397,0.647110823100942,-0.187599228298254,-0.131190440375293,7.89116549460823,3.08328116674441,1.37678944645122,STAIR_UP
1.9,-1.81413584154799,4.08324076984363,-0.708210175817987,9.43477461874467,-4.10951885335411,2.0905205378719,-1.13913039102736,-1.87832408506818,0.0267350481646563,9.02013653029086,-1.38363203703811,0.0315471189362925,0.543756147286418,-0.18781150176981,-0.221397192622701,8.18842022169656,2.57582944408059,1.77654993598503,STAIR_UP
1.91,-1.31321193184938,3.53490308018913,-0.806234307933315,10.7676970588566,-5.13401279838408,1.49808716375386,-1.06502411998412,-1.87793189704641,-0.0818191612319519,9.50591238235523,-0.827692431056032,-0.277999034905698,0.449080765334597,-0.222302957624977,-0.275680816708193,8.51767833255545,1.83129460558669,1.49218430127228,STAIR_UP
1.92,-0.568290016831895,3.56529499051924,-0.703911667156173,9.88126139114676,-4.1152832588401,-1.52977025911726,-1.09024362454928,-1.91422978157622,-0.154962132423202,9.81214648088097,-0.713340088954352,-0.366734049231201,0.380123121562988,-0.24638599805828,-0.294087599432427,8.71469143114371,1.20368480061958,1.21051813316607,STAIR_UP
1.93,-0.11349494675681,3.38526197402056,-0.514913197690747,7.93896306108286,-3.40639810447245,-3.70719689126393,-1.180530615045,-1.97602813619526,-0.182908015838238,9.07466852301623,-0.309564750372055,-0.332291855692276,0.335894661845384,-0.211694146274178,-0.285682549419111,8.64140245289815,0.88574188488287,1.25347472027724,STAIR_UP
1.94,0.340232179193434,3.22298412966183,-0.365914811038579,7.22305694912264,-2.10377044941609,-3.77740516932601,-1.24702488127886,-2.0528719029319,-0.214548790077509,8.36820584900532,-0.832902199102743,-0.53280079683795,0.304715421327887,-0.155354760629297,-0.28056284053055,8.47534982124848,0.892673073402528,1.10076551252386,STAIR_UP
1.95,0.696184856638199,3.03517580672342,-0.333775769721394,7.61864078777152,-1.01850877611366,-2.01145658189013,-1.39797609498937,-2.14321409938072,-0.221253954980511,8.26403444915194,-1.68355511596265,-0.986215548854833,0.297247196481635,-0.115532883220211,-0.297577910761513,8.37254956574523,1.0112766809286,0.983486239490734,STAIR_UP
1.96,0.542684782426651,2.8945030898068,-0.398119567457528,8.61973660219166,-0.0478278414869109,-0.374712074434949,-1.51268964167452,-2.17760060006903,-0.213626954233907,8.51009192640741,-1.74161438070958,-1.13865102341481,0.303170453305538,-0.10040820425458,-0.312051023817154,8.13390408762704,1.04544599286104,0.759870959466533,STAIR_UP
1.97,0.185846468156867,2.77433104476786,-0.426830567154998,8.91207255391596,0.709231364186099,-0.433066667239702,-1.43878650805668,-2.14787203814098,-0.231652482453636,8.87174903215057,-1.73498993405235,-1.32209284415734,0.297274751229454,-0.0820490718148609,-0.336211053959053,7.81534504447208,1.11113785170948,0.621561888146055,STAIR_UP
1.98,-0.0790523628443604,2.58382674708821,-0.417398866256528,8.01415394331168,1.0247335001114,-1.25111464476192,-1.38707552148889,-2.09711923741717,-0.221828783976411,9.33925513523158,-1.20917637957656,-1.49104933753937,0.298636027405849,-0.0761341136608034,-0.346188241724323,7.65052598855326,1.12522921191515,0.265116392146994,STAIR_UP
1.99,-0.439317450500241,2.34693005603015,-0.364760709816787,6.11988244835357,0.815131746940037,-2.02679199493174,-1.43919684930083,-2.02455184708487,-0.23564008787681,9.41304305136995,-0.572037864842604,-1.16208133223853,0.299267004094548,-0.050578425935116,-0.361454600446442,7.58573461838777,1.21170959597657,-0.109348467099302,STAIR_UP
2,-0.439317450500241,2.34693005603015,-0.364760709816787,6.11988244835357,0.815131746940037,-2.02679199493174,-1.52859285122545,-1.990635083069,-0.273678543632514,9.65566962648672,-0.0018716051981449,-0.741369583659892,0.309404081538284,-0.0125424282131561,-0.383222251352156,7.64109865534563,1.29393206385996,0.305991785359686,STAIR_UP
2.01,-0.657951057576695,2.1007428778678,-0.275427325335957,4.54320299868104,-0.0950363869795536,-2.02181975131528,-1.71804880948413,-1.94756344843294,-0.319556665929261,10.2279128486523,-0.525461878931306,-0.453646901759729,0.281801829848412,-0.0182410931562493,-0.401501339038506,8.03019338824734,1.52023769578794,0.328034204518434,STAIR_UP
2.02,-0.779158685340157,1.88866558665438,-0.213079955094839,4.03760038168484,-0.694585784956384,-1.8813045904992,-1.96852431334779,-1.93736282689611,-0.304665213914437,10.5570265789924,0.153759296280017,-0.0679119870313069,0.276292693238732,0.0145056852042304,-0.401556422235043,8.47253922844797,1.85677772821271,0.046230567447371,STAIR_UP
2.03,-0.858393557361788,1.65544354173243,-0.173240574670008,3.35604886039239,-0.579279424296162,-1.88214848377152,-2.10192904691894,-1.89631910316875,-0.220687832500365,10.488483180323,0.0649123329234647,-0.805433560227858,0.267349668274738,0.0728451750395241,-0.392339383952715,8.87739289919417,2.18645139834934,0.267066721864016,STAIR_UP
2.04,-0.874226441367471,1.4499701323468,-0.105756612946333,2.02694245077892,-0.185327491925044,-1.8378324191255,-2.15518299589737,-1.86700765183817,-0.215280489841824,10.4589143307427,-1.19306437705542,-1.2662548071099,0.218924034033092,0.122358669447547,-0.36760763895123,9.20795232833351,2.53310596868623,0.546966070426487,STAIR_UP
2.05,-0.895234568987284,1.27301940695047,-0.0918031112174334,0.910545794617162,0.352469048094124,-1.88964435360887,-2.1259278693036,-1.80442496292336,-0.259338944195256,11.0901583923153,-2.05730791418107,-1.15292142716764,0.181735867082069,0.154863899693267,-0.354019217463112,9.552028602675,2.84528465788834,0.774564519124041,STAIR_UP
2.06,-0.974265567626003,1.04150947880504,-0.0882714132058728,0.224124810993644,0.728872604483189,-2.05550694097806,-2.08006923472074,-1.73227215608076,-0.285021955365997,10.833245763635,-3.02283459771327,-1.5099349185994,0.124002003337243,0.165159336465256,-0.341784252749142,9.93251380155323,2.91295511774314,0.879207668548847,STAIR_UP
2.07,-1.09122852539686,0.703306542805211,-0.0861248848515168,0.226962858414623,0.52305407461277,-2.17280968373544,-1.80508441631536,-1.88843740089403,-0.409796139098154,10.2951720703457,-4.03958941138324,-2.90898969432911,0.0787746375793015,0.141700383808844,-0.331432573622782,10.208637841463,2.88503816449292,1.08054426386755,STAIR_UP
2.08,-0.993933233087699,0.406247075448784,-0.12661419256044,0.58595761647086,0.515435641998451,-1.74817187073145,-1.4587658076119,-1.84119710646906,-0.508089597361436,10.6472014826388,-4.61903595795177,-3.40784114315805,0.0539421310486979,0.0958572276067291,-0.318830201839732,10.3392536076255,3.03801490431878,0.908543021521898,STAIR_UP
2.09,-0.777508444368039,0.158006362482438,-0.166695186449338,0.812342231069488,0.673141013342169,-0.876080430285909,-1.08841657915438,-1.63405847292946,-0.577848590909635,11.7373384403964,-4.15224925285189,-2.99805817015575,0.0911908463768435,0.0402992501283532,-0.286361109332835,10.5586301539081,3.06561755629421,0.329051900311865,STAIR_UP
2.1,-0.544697243292423,-0.10791128622765,-0.184493019683227,1.0188899357773,0.373681576374526,0.114570554411402,-0.554471755669022,-1.29172854878452,-0.626680651805792,13.0521851125192,-3.89974211092291,-2.60919082790132,0.10501188176858,0.0030787865712196,-0.241761577497044,10.8394755918998,3.0036798473644,-0.0339623675383761,STAIR_UP
2.11,-0.320288558261794,-0.438297618528341,-0.218229622690144,1.6335261840808,0.623612133962462,0.947349558875983,-0.0487567658299036,-1.08288761446995,-0.645565795417179,14.074566255723,-4.42972700288274,-1.09697272996557,0.0738158526453278,-0.032339869363991,-0.196936394403646,10.9034171434933,2.9297510349928,-0.250580904273616,STAIR_UP
2.12,-0.164684195945122,-0.817681051220391,-0.274053936426391,1.96866176232765,1.14679627213126,1.75465250151639,0.271047636343449,-0.803772493578584,-0.574353627720144,14.3467585555034,-3.44263971061955,-0.305915986644516,0.0368248934718387,-0.0754861452363251,-0.150897649619281,10.9297016550649,3.05541803298124,-0.571856486738534,STAIR_UP
2.13,-0.137416538199073,-1.31234453520314,-0.31369339849085,2.33997734622187,1.50516198657217,1.75406347499098,0.519855970260297,-0.557391647405675,-0.512404654516222,13.9704348870146,-1.43507237572376,0.112496025501349,0.0310999166133054,-0.0821329895153094,-0.10518025319645,11.110172920779,3.33891019612654,-0.761980472778035,STAIR_UP
2.14,-0.156203763210608,-1.84040610006616,-0.331050972579788,3.04385698712387,1.53937701076901,1.69825015599002,0.734980383257093,-0.370393739921725,-0.484050433135906,14.5440012491308,0.459450449730115,0.678362373037698,0.00902030399066,-0.0862702970819133,-0.0656786245169598,11.5347040626627,3.4390183437247,-0.486457852006846,STAIR_UP
2.15,-0.106298009230324,-2.2510841295323,-0.327134228708447,3.57970604342944,0.542604732237215,0.623471412594578,0.76253012021777,-0.166335063918291,-0.443638634793115,15.2147737682307,1.06683012443813,1.83007096859627,-0.0356502700961522,-0.090407897399961,-0.0194994105971716,12.0658047748952,3.71356302659343,-0.421087086940157,STAIR_UP
2.16,-0.0377469543920013,-2.36722437080087,-0.346294981536097,4.95898566698579,-0.773166561643015,1.3433206325995,0.705244171378071,-0.03757928173025,-0.448112362344521,15.7465294686003,1.99666906344223,2.06902581191604,-0.0675910416814843,-0.0982225169192616,0.0431224260622119,12.6127683197853,4.16638784952151,-0.194736079688598,STAIR_UP
2.17,0.177171286060804,-2.0929822270729,-0.415102275653149,7.17014294077202,-1.83231818003157,4.22557074928324,0.572788562665511,0.0655433528151468,-0.453117314402451,15.491497754256,2.9283018127961,1.7574759669105,-0.119188594490984,-0.133330446889503,0.10845059826501,13.069365221326,4.65353909255696,0.355047189502968,STAIR_UP
2.18,0.571906995527322,-2.1959031599539,-0.556734637291447,9.55877801259907,-0.785160911348809,5.14028661015128,0.362255792513682,0.0842795929936917,-0.478354783851785,15.2617624195798,3.47928579463137,1.59872442461948,-0.188430433262248,-0.126210556021007,0.1524794821371,13.6537286331157,5.09472212433649,1.60051827047234,STAIR_UP
2.19,0.568350161722645,-2.74435342791086,-0.600607249142187,15.0894434484832,1.75710903323863,-1.00924536635311,0.128979481584319,0.101508297832257,-0.522850082598411,15.2519687274378,3.64599888343354,1.8861621668758,-0.31829015980943,-0.125627426738047,0.128595971677543,14.6334549429814,5.00954873036291,3.50847958746381,STAIR_UP
2.2,0.718646680064943,-2.79919902285319,-0.587420948956231,20.3718093436412,1.32083047335892,-2.26301030700808,-0.0795146900305438,0.185508386898232,-0.573540147812285,15.3650560940242,3.2961386452448,2.17583652779388,-0.466466525414609,-0.260148201971724,0.051636937090723,15.5759899656613,4.2303301768299,3.82878285424263,STAIR_UP
2.21,1.55839400462916,-2.74455354260545,-0.683438660391684,19.3703200262033,-1.81811798601522,0.417651060671226,-0.298672371932812,0.247499225769484,-0.650131766053471,15.5038883317804,2.26259435518943,2.35527858371832,-0.547264175171153,-0.424768712393788,-0.0419655239791782,15.4164168614179,3.10877595936768,2.94529230136658,STAIR_UP
2.22,1.0933823617711,-3.00929328522095,-0.929981290572765,13.764081256996,-0.659642572696589,7.05627422623599,-0.560250163030319,0.310529929545834,-0.68792996949202,16.0146205290211,1.31198633642639,2.65618592671936,-0.544106100677674,-0.620410254586065,-0.1008047564138,13.8204145202492,1.9047164991145,1.03373530285616,STAIR_UP
2.23,1.10612388608121,-3.40362214671825,-0.685534419224171,11.8342387743545,3.48306957266952,0.707593480362828,-0.790804524374417,0.436139576598576,-0.635903419435486,16.6607012102872,0.61613123181576,3.14910031245722,-0.372591706392651,-0.567448518040951,-0.075986993974834,11.533909450657,0.658079065149768,0.295904766636103,STAIR_UP
2.24,1.23558730874391,-2.82267661571991,-0.185101284875191,11.8496539382813,0.302401834726319,0.786069778729334,-0.856778402393639,0.643232784095218,-0.429682327910221,16.7098379284307,-0.240181298970498,3.72567315896982,-0.270357550302131,-0.408306764457691,0.0091788349971197,9.16578180280635,-0.294047746587633,1.45343608806407,STAIR_UP
2.25,0.760124983729467,-2.31960169883776,0.0395430598331115,11.7162855971598,0.719922141010542,5.09413448540363,-0.784034450676018,0.922070609799483,-0.129310367652977,16.2129569967247,-0.286366525485275,4.06212146560354,-0.311832948011021,-0.288008846583687,0.121617261755086,7.84866487247407,-0.59089616365546,2.90897577033688,STAIR_UP
2.26,0.897320774553383,-1.97737149422258,0.145278589447912,11.7688366458545,1.5086540939859,5.02981711317086,-0.653487519569595,1.36842403010571,0.257747882821591,15.6792525492115,-0.0279747087232628,4.51752507244635,-0.283863845550656,-0.168304344071552,0.254379529092956,7.24613979839205,-0.336582949919475,3.9225980497141,STAIR_UP
2.27,0.722288653352155,-1.87130067769994,0.174330056252047,11.8850962727571,0.0247983076379225,4.58494018092723,-0.565150619882078,1.99222314008799,0.527061045400377,15.8482204680108,-1.08218648732577,5.86012757237314,-0.225224119329064,-0.0838526429392736,0.36666709342683,6.9388903824028,0.417874711491776,3.71622844423292,STAIR_UP
2.28,0.672497552268214,-1.91599249993929,0.19491513737744,12.251078313841,0.0143619348196058,0.914803656555105,-0.443311610479826,2.85356750075031,0.62275808537896,17.5862449085652,-4.53464026204411,6.26319919246809,-0.158338283679214,-0.0128786340277065,0.437571922890349,7.13851102207372,1.09414176135851,2.93485046639569,STAIR_UP
2.29,0.788420938674323,-1.93970907489608,0.303218485716196,11.3950279220001,-0.0659085049074592,-0.737781136500548,0.12442120114867,3.88270609942946,0.782323966147542,19.1864894229652,-9.87871805474449,5.24621843018981,-0.155238588297207,0.0543720419622645,0.48665369520508,7.73365203819151,1.31696356012008,2.48411648923185,STAIR_UP
2.3,1.00643624948242,-1.93716064288497,0.425551484594355,10.2289962132558,1.19094525738351,-0.60097758971572,1.54659117166391,4.5266620716774,1.08937592865499,19.4305120158653,-14.8539904987592,3.83352889854334,-0.219984616184897,0.116392639038749,0.51291181684269,8.20389952132567,1.24203557702823,2.34233480644353,STAIR_UP
2.31,1.15794285455796,-1.93148539305045,0.478637271559925,9.26422254411916,3.13183204817941,0.160510817824098,2.81585787989607,4.52119438116872,1.24746385482338,17.9671495614446,-11.9714676339766,2.8121142752277,-0.298000610647072,0.138149521044833,0.517647276843183,8.34382685170234,1.20872209243134,2.19715217720552,STAIR_UP
2.32,1.19713954773897,-1.94354623797464,0.4299312663559,9.38362650643904,4.35326561148258,0.633407514037804,2.86944006873541,3.81172727313129,1.02766116269645,13.0624081917529,-4.91717359527214,-0.715034413481126,-0.351190111944682,0.120627289411698,0.486700895403883,8.18686120561965,1.36037057200246,2.09616556927624,STAIR_UP
2.33,1.03955262057964,-1.94497096382984,0.300538079606314,9.76045581839083,4.78488181250035,0.754450848851884,2.31296711169817,3.22948037469541,0.665124818511943,11.4457897531692,0.341922650844171,-3.12404103869335,-0.356796407481801,0.0551491293711673,0.438378218783299,7.9618360770681,1.34977004947184,1.80737904406165,STAIR_UP
2.34,0.774221563582129,-1.93487981239583,0.199104530964837,9.75443020301742,5.07533670939624,0.81064444977407,1.8060883620353,3.16881944857467,0.464608964526113,14.6487019155051,2.45535911442927,-5.75946388155203,-0.329708438657834,0.0198249816494022,0.374842369312686,7.60980820955714,1.0971864253432,1.44415015827132,STAIR_UP
2.35,0.617842373009982,-1.92882089568681,0.153585295029734,9.52897305203376,4.65595526431019,0.446523421536361,1.51763787053379,3.50430898562231,0.364310128321269,15.3000836049603,0.248367106592158,-8.4221069076491,-0.287559462509393,-0.0200730736436369,0.319957662164579,7.31834824301168,0.662710139406133,1.01794750729108,STAIR_UP
2.36,0.515147020320096,-1.91903177757678,0.170493691098554,9.6039933719258,4.12110266361375,0.566768133128856,1.48653657098257,3.79021312942893,0.320502363726873,14.359258632637,-1.38506232492737,-8.30702511342307,-0.245225916953951,-0.0302283031135371,0.266203011914623,7.36030926992225,0.255661338334332,0.839453205509835,STAIR_UP
2.37,0.572388543781986,-1.87880079169545,0.234026915769312,10.2690715702096,3.04408520737861,0.737127556188697,1.55823580607783,3.76962712118185,0.266160399497519,12.7971389896525,-0.883035010572302,-6.89416300911018,-0.207618268862286,-0.0146053108259248,0.256614776761404,7.66661087849013,-0.162701481838329,0.791233869183829,STAIR_UP
2.38,0.570541430789083,-1.84514263003777,0.307198550220066,11.1086816224665,1.42965984405425,0.638426880371086,1.5662593894839,3.7462099548798,0.193362023293021,12.4769663703913,-0.469695634693187,-7.16723050294961,-0.179464623344705,0.0196871436503128,0.267071632688801,8.47492995563614,-0.44168314455666,0.964394437891691,STAIR_UP
2.39,0.54785588414039,-1.85435268899958,0.361755458814772,11.2813298006567,-0.420033092217716,-0.153023465686439,1.41685142982338,4.10005154352269,0.225787554755294,13.469283653797,0.373907937449439,-8.53688716853243,-0.151534861409625,0.0225273884383823,0.308266844154702,9.70863522112046,-0.541942039423735,0.931383327818121,STAIR_UP
2.4,0.623662838099255,-1.87805624941115,0.381489238663609,10.4619382998794,-1.25088779414844,-0.361161604487405,1.36080673670535,4.60831852581499,0.413642393748961,13.8210038778124,0.666714722485904,-8.17108411211289,-0.142117146349227,0.0440535462328447,0.366781427526539,10.5502884374453,-0.490995880201775,1.0610851764941,STAIR_UP
2.41,0.763111015889331,-1.89697004124802,0.384040163336393,9.60071280869086,-1.19929148729576,-0.593319936304694,1.44153405699961,4.85823966189402,0.57612650938027,12.8042934186239,-0.101592358512519,-5.62824679542433,-0.165729160047592,0.0698867701424364,0.421037916751192,10.6333541326874,-0.3849053412557,1.3656091557196,STAIR_UP
2.42,0.901513177350433,-1.90971436504679,0.388586296065649,9.13386333300434,-0.620489669906068,-0.827310307979843,1.51063481399907,4.64024297850824,0.600074815593257,10.2903785208396,0.497531877471324,-2.01766565680186,-0.200690200777713,0.0962081733274614,0.435454687852035,10.0961288145714,-0.243340424018053,1.50889271848442,STAIR_UP
2.43,1.02791836537566,-1.90939236545294,0.393274792132078,9.32096532839676,-0.0313503156214351,-0.597483174919373,1.53976345288405,3.90578041786721,0.466291634123128,7.77378943073357,2.75634714110542,0.600759435586736,-0.223416466942308,0.126507626910295,0.411562461324,9.34417500979869,0.0451922185055718,1.60668224879269,STAIR_UP
2.44,1.11561087953355,-1.8693869096878,0.399910300676228,9.87102376292054,0.26005115676898,-0.653928640579984,1.36394471365881,3.33471516164054,0.362281781752124,7.35972820405001,4.09681557740999,0.990678485454688,-0.230382588774682,0.124679237532611,0.364380211905841,8.67433543200697,0.399190516363996,1.59126495539937,STAIR_UP
2.45,1.16837347615834,-1.73058758377872,0.383189736907918,9.84279611515628,-0.0191169555636482,-0.702095929695194,0.990028530784689,3.33296375952469,0.431514925305452,8.12899256187253,3.9323408731042,-0.890783018582134,-0.249590137050601,0.123796752420581,0.303862489664998,8.1813523159091,0.758755186919144,1.45622342020795,STAIR_UP
2.46,1.16223019401909,-1.70697277202816,0.385555154826914,9.53435224746838,0.119743874566949,-0.36421922469564,0.385355365913058,3.32533625009169,0.501224433228968,8.21542440177888,2.72445581763338,-2.40813254589517,-0.257607530025473,0.128360227529672,0.238459906419505,7.74467227149695,0.764282202448506,1.37337060353826,STAIR_UP
2.47,1.14931769056497,-1.66025217642911,0.399946713991647,9.44570720972412,0.770016026238073,-0.542468314593421,-0.0749307071791451,3.04019427178894,0.435157129033739,7.87022255460139,1.33486517715368,-2.53847019838984,-0.285908610058084,0.15274762830187,0.172362038940599,7.50461557385774,0.767728054407635,1.17952344185541,STAIR_UP
2.48,1.23475107798465,-1.6016609295298,0.419458492458138,9.14242428649927,1.04422761804633,-0.763469132142825,-0.174507685524381,2.7362059635102,0.384332822144276,7.07256052062434,0.703981628561343,-2.32473020407222,-0.307297563818102,0.198564064852506,0.108795907136379,7.37993400350442,0.584800062333687,0.978642557853051,STAIR_UP
2.49,1.26615105133618,-1.55137545622906,0.470781239539708,9.43114685970236,0.759525816394219,-0.642897575911503,-0.0346096481940001,2.55045671194085,0.390912231654498,7.26778656538371,0.433796126796541,-2.24360132244561,-0.364979985901046,0.256858682376895,0.0582331603368593,7.39009737422553,0.33404119228261,0.650323512774094,STAIR_UP
2.5,1.25370928569409,-1.51528613847567,0.509198910870785,9.90892148058392,1.24981470534225,-0.374751777719495,0.285647499213689,2.50279327712735,0.442646833853312,7.16618523210991,-0.56033693486761,-2.39686080446338,-0.438768464685216,0.34685646888645,0.0221574179568165,7.51463011106184,0.0806600101925548,0.595926967048127,STAIR_UP
2.51,1.31255935930355,-1.40332841883002,0.494270113333785,10.5708294279211,1.52707576927792,-0.428712574579996,0.896406868326292,2.36177284039125,0.379973750994411,6.16697037314244,-1.74761873219585,-2.98022837911035,-0.460102295392504,0.424966418030208,0.0167478570532238,7.82681076361497,-0.10584602887974,0.73521067637377,STAIR_UP
2.52,1.40349769687235,-1.2812744469506,0.443600204306591,10.6526403499745,1.83206348026823,-0.551972564782936,1.52801368829716,2.11022383871818,0.25381598067493,5.95968237731628,-1.60215249420586,-3.06517279675522,-0.432148063268655,0.450315164793197,0.0457578279641434,8.31678650786894,-0.316447845031051,0.813748492770424,STAIR_UP
2.53,1.4896050396252,-1.19968809969729,0.397794300671472,10.9693953335142,2.94524463023702,-0.212855446399356,1.93569072798716,1.92286052455041,0.201451763948772,5.67297050105491,-0.105547430757812,-2.64839263017625,-0.376437556392117,0.50153005799089,0.0916143703352987,9.10688724434498,-0.433717154995267,1.37787116064618,STAIR_UP
2.54,1.52910831860038,-1.15825799960075,0.36881221969726,11.5645875655815,3.49101945185045,-0.220405127522378,2.16543006566327,1.70727762552168,0.157807297218849,4.60712299293586,1.84104395478261,-2.23888029608608,-0.346343837474651,0.544475159982037,0.165915337199691,9.91219792442636,-0.650804720496636,1.90553717570429,STAIR_UP
2.55,1.37732949144545,-1.08531148751167,0.368414036202018,11.6779478980822,3.16075860587207,-0.261672537831838,1.93945823920482,1.45370539702732,0.0923581962295985,3.76999086548058,2.15570717599045,-1.72627413686283,-0.302269442688597,0.530496273364701,0.243325465858151,10.7854728997434,-0.801199509399461,1.88261728001754,STAIR_UP
2.56,1.11945778906639,-1.01964169182517,0.38054903218948,11.6005123032751,2.22743965844329,-0.181088996124376,1.41613765323637,1.27628202308714,0.0694234682828117,3.30099370227811,1.24170321339334,-1.09537548666459,-0.223820606111434,0.497638980908789,0.306664309822588,11.3882656932109,-0.723699222068259,1.47677456907196,STAIR_UP
2.57,0.848812983347437,-0.874116227823421,0.401163436005986,11.4526212406568,1.71704047826826,-1.14062326119471,1.01784348661384,1.05854655954977,0.0484699902827103,2.87960041574839,0.494522252330589,-1.03896244516938,-0.11438193531212,0.456735097967335,0.359530273304427,11.7449224637904,-0.471949722319123,1.35441697502366,STAIR_UP
2.58,0.704059097386889,-0.749310014590736,0.455409467065649,11.5096525077449,1.88782229128456,-1.69153941914481,0.892215325635273,0.73018109491894,0.0580953121155787,2.37842029353745,0.570642026706685,-1.39503840233476,-0.0707845376460089,0.4076223543512,0.398342417213224,12.018087786331,-0.227706822713386,1.78638880879659,STAIR_UP
2.59,0.604178603413371,-0.637501780577627,0.516994270782536,11.8411171123235,2.76686326662787,-1.97833661115198,0.767606032339531,0.365511544609719,0.139415049710467,2.62355912763689,0.229905773687715,-1.40492281039252,-0.0963802696445227,0.31533818578893,0.420217915306674,12.1857399124829,0.0250064347678739,1.8787549790306,STAIR_UP
2.6,0.559691112060627,-0.595120665719994,0.529490413204731,12.1442325972072,2.9106259263908,-1.84568824066457,0.548830731673892,-0.0378460816340606,0.276016808488762,2.61653711380516,-0.916250543594825,-1.18513317702558,-0.146501175979761,0.238616753853886,0.419244229754847,12.1754309068076,0.217515387187021,1.76505753635384,STAIR_UP
2.61,0.437577741978742,-0.579992647825745,0.52927106574971,12.9845557852548,2.4867467847839,-1.92226136309014,0.464972776855926,-0.484897567031688,0.405053120971205,2.35970144699983,-0.797099631632704,-1.09433949670902,-0.204939194859705,0.173597544815819,0.395915731224647,12.0772724145758,0.248844305036197,1.48368610019799,STAIR_UP
2.62,0.274254826177524,-0.592524133318135,0.488846817562487,13.1027558401536,1.83550303169953,-1.45407948826593,0.627068421013997,-0.871587034889579,0.464740303339794,1.9995658402067,-0.111385177498976,-1.42865477873912,-0.248121857641332,0.142171138177248,0.34696998510599,11.9497712903073,0.142422261740625,1.10232021883309,STAIR_UP
2.63,0.095285210167506,-0.606153964420403,0.48592238010355,13.2125496146153,1.41029245124792,-1.17221575012778,0.662077214840342,-1.37133793350128,0.490642631332133,1.65072003076565,0.606238063252999,-0.92030076076309,-0.282132083204425,0.126853912861676,0.26678393473581,11.7081426444037,-0.13166848486589,0.797861798721619,STAIR_UP
2.64,0.0093112795130972,-0.578501829386769,0.510387968527514,13.7961472359584,0.958997236130596,-0.563485684522158,0.434516697901278,-1.86145131701351,0.516481283479565,2.09569081296419,1.13419123222257,-0.175487232737024,-0.269452479218767,0.112159844214259,0.156310883005174,11.4247182447489,-0.459300651888511,0.473340173468971,STAIR_UP
2.65,-0.0096044526124403,-0.484511769656679,0.494106073452877,14.1634024100351,0.246470630088419,0.377568339279285,0.148005948822669,-2.34323675822224,0.524767561463918,2.40325134647147,1.96587724621879,-0.462446241480148,-0.187871397472777,0.0841920040325546,0.0405266476952165,11.2035930788067,-0.750253125174398,0.0110775182588307,STAIR_UP
2.66,0.0184219055649145,-0.404037326710443,0.458718763556937,14.3037241228952,-0.171903763707975,1.46249846042126,-0.0395487329832274,-2.45577483794524,0.57411796837519,4.01204190843178,4.14549675198316,1.87984746061303,-0.102810352804717,0.0701452959999867,-0.0730645755995049,11.1819093807739,-1.10719430011994,-0.263229196844357,STAIR_UP
2.67,0.0588896468125217,-0.315544977413654,0.409601028610325,14.5428614769955,0.0015184013584889,2.71647923536452,-0.254660716612032,-2.13107539900166,0.697806320097633,6.0191318224665,7.59570032545487,9.59672042464582,-0.0992247039103844,0.0405301809887091,-0.17611738749316,11.352209396171,-1.75134077956292,0.233810018203,STAIR_UP
2.68,0.143980610828622,-0.176258247575673,0.331015493341156,14.0996565071915,-0.140419757527673,3.84772642369345,-0.891335361994125,-2.16376796439547,0.886137124417545,8.89437724306047,4.86233052250941,10.7622945042715,-0.100005814295956,0.0138050635198727,-0.243449636848284,11.7777202076965,-2.09118850695765,2.78520122432826,STAIR_UP
2.69,0.313574395830239,-0.007077003101684,0.27011582254282,14.2334600384511,0.407854091443273,4.3074782480739,-0.973020409324697,-2.83626766873445,1.0908400531079,16.3385946469097,-1.16349117950559,1.06618089111297,0.151651970166909,-0.26943553509284,-0.196799176158466,12.9738687661728,-1.74044998259013,4.98076850560077,STAIR_UP
2.7,0.529437982770859,0.214348196815118,0.243877641325183,14.5382931277394,1.19351755275892,4.2668552422988,-1.53906137645352,-2.19019327420819,1.44803760712517,19.7143089912054,-3.4039915397136,1.99771427909583,0.499390808918194,-0.663345836896418,-0.0266501688109664,14.2053610480054,-1.19822635416159,4.03011155274188,STAIR_UP
2.71,0.725125341552011,0.430636267258751,0.214240788834531,14.4427694807378,1.79441312243505,4.4740575079445,-2.19651959275037,-2.62611373428993,1.3742968061877,20.3230661655906,-3.48515593790768,6.11703994291281,0.608325644417054,-0.811117805491135,0.17774775755429,14.0451800875941,-0.613594777309632,2.86018498367958,STAIR_UP
2.72,0.89881049913828,0.64724513767271,0.13503258396399,13.9022608847554,1.87203550288207,4.60658309776292,-1.46198592814322,-2.77020385648201,1.32751321993168,15.9482208984227,0.203788305240896,4.73125504417416,0.364405668605186,-0.772535081942491,0.263704275790711,12.2028917001414,-0.0416354581102113,1.08662554969425,STAIR_UP
2.73,0.987954374973184,0.846752455110014,0.040930347245964,13.3077073563228,1.89284804250864,4.66987980403281,-0.504404556657202,-3.51861133341531,0.943108291519652,10.268294852391,-3.977223422128,3.72506950289541,0.380546174297932,-0.617860088608864,0.280486184209015,9.59929360703918,0.741430628856857,1.83808471944602,STAIR_UP
2.74,1.03157983875927,1.04857190030545,-0.046105982370449,13.242141629568,2.07045696282746,4.90813738288509,-0.887833289685624,-3.46299837539446,0.0571324313353307,10.1834156300632,-1.84941469124467,-3.095523075848,0.450815613943592,-0.550111975234176,0.231978122411499,7.58706840495422,1.21575311054179,2.911103518775,STAIR_UP
2.75,0.986145203733046,1.23017366648039,-0.0874996820725589,14.5373735654357,2.71345801476316,5.56185738000565,-0.559946466610614,-2.69446942707751,-0.160092090347026,9.10086075506325,-2.57878921919784,-1.07506605592239,0.400511093886812,-0.514890435119087,0.115671423905538,6.50783448371915,0.845099712202087,2.81866608522258,STAIR_UP
2.76,0.696438302521633,1.54529485169809,-0.164705908035554,16.9529932723134,4.25887268484035,6.82947072340967,-0.0509300277124889,-2.30884043869018,-0.169869770504374,6.76648223601829,-3.03300756585823,1.2676797254481,0.333541023146469,-0.342423434378639,-0.0400850960043722,6.10428771009555,0.0875325360664292,3.50275377524989,STAIR_UP
2.77,0.0655785291061859,2.03163290668347,-0.329421510381142,18.8505805440625,8.22149370705428,8.09853795373659,-0.0280560479106532,-1.90369816474972,-0.233510960105309,5.99290257359249,-0.285875913093217,2.00608357710024,0.354391482702239,-0.189691861525933,-0.219828151137254,6.44111884385128,-0.283266412396645,3.96502596218565,STAIR_UP
2.78,-0.968357169139906,2.41909986402348,-0.599883688845871,18.5553558725058,13.0546902403096,7.52284932319848,-0.0253077187026485,-1.71123014965512,-0.164877521666472,8.298150180627,0.726237047444987,1.75192952064162,0.44436422652006,-0.105980691290422,-0.36263440793926,7.64942077831168,-0.297540962056779,3.88192565973784,STAIR_UP
2.79,-1.96615972150491,2.58877783414162,-1.02382224545613,16.7720173728415,14.339136374908,5.3438871373225,-0.305487305476217,-1.52648009782067,-0.0464984748333639,10.8546017584793,1.01827536996646,0.78731491252448,0.513508833431441,-0.102553964923546,-0.453396961558152,8.95176591136732,-0.267958679571025,3.12664600217361,STAIR_UP
2.8,-2.49634384607502,2.51594038309629,-1.40650421167216,15.8500946889112,11.1644940535404,1.59640234582569,-0.754229658344206,-1.53954707282767,0.0245576815105393,12.6202058383059,0.346782562427285,0.569091287193593,0.53182402686164,-0.117808357909784,-0.492279506514711,9.54700774098526,-0.111365145219233,2.47091322996093,STAIR_UP
2.81,-2.67423708595446,2.4802424793966,-1.43470589667327,15.5833991368383,6.033262611687,-2.3219259549914,-0.999039649609714,-1.84744856671002,0.0283081619205751,12.7422912802888,-0.16710007039527,0.267550881661152,0.523317774664966,-0.092503223947776,-0.473979398668499,9.46991094936592,0.203984331942172,2.14008312030143,STAIR_UP
2.82,-2.89298378233921,2.77753307011379,-1.09121076085818,15.0988986605172,0.923409825424961,-2.94533212023454,-1.14029701463004,-2.07683607446536,-0.0102582372573979,12.0261131131606,-1.23593712545759,0.402239708271517,0.52218911114019,-0.0573762217232842,-0.402466629176334,8.94943637478208,0.674700945677095,1.88127759095453,STAIR_UP
2.83,-2.54722800159958,3.16232459889528,-0.812939100323019,13.3396068045216,-1.26776724737819,-3.53953162405601,-1.05902546655939,-2.2411269869956,-0.078764304960228,10.553467679322,-1.81264588748598,0.255245940114015,0.524597276438005,-0.0255069782908674,-0.297416162554035,8.14200468302752,1.21016677161671,1.57318391702724,STAIR_UP
2.84,-2.16625544379009,2.99709074869823,-0.571971047924834,13.5085007346483,-0.868930234247596,-3.52401943031557,-1.02922490218528,-2.13823850190476,-0.093410436969392,9.51373342095046,-1.61339240864006,-0.246755541291179,0.513470551793419,-0.0161375551937088,-0.196402770352302,7.35241208764244,1.7896226529761,1.53625411001885,STAIR_UP
2.85,-2.22424835458585,3.12627036905106,-0.415636224499285,13.9283662359421,-1.78530663854068,-4.26237118363648,-1.08147434470675,-2.05089391755857,-0.055292528568407,8.0785621917264,-0.656793309468141,-0.146532525741653,0.494481265370183,-0.0386843365016495,-0.144242580313734,6.82486526258123,2.30107991264512,1.18082933957913,STAIR_UP
2.86,-2.1669501873448,3.68602414440834,-0.390706718709815,14.0155781062694,-2.07941870712756,-6.4914739902537,-1.25607103899563,-2.07304105015177,0.0001904304861975,7.91727765342452,-0.814050982334043,-0.634009368743332,0.467792242611535,-0.0528458477825767,-0.135838418510879,6.71617857842862,2.70068013924599,1.05947822292913,STAIR_UP
2.87,-1.9931547095115,4.18803450412468,-0.37397920096262,15.5257983205251,-1.38885356486322,-7.71039357037601,-1.47574609748055,-2.07855904366733,0.0471086201541587,8.27658477846845,-1.52691567127168,-1.09286339534147,0.430209817161765,-0.030646067630937,-0.186680360037838,7.03699485402308,2.85940823462615,1.19829847255476,STAIR_UP
2.88,-2.20817139282918,4.74604002636579,-0.536003095407233,14.5168428176799,-0.7444872471245,-6.75503861354599,-1.5305195968276,-2.11198213309282,0.0229726692452055,8.90272687870903,-2.21079131796633,-1.05692839361435,0.371419294937219,0.004748243051415,-0.247603193236948,7.74170613740662,2.74195371853187,1.26926798407129,STAIR_UP
2.89,-2.43794441536815,4.98009913136912,-0.7567407430002,12.2412612952236,-2.05444707367586,-4.07388063396142,-1.46161993665854,-2.14155494033642,-0.0768514566830512,9.84238504585548,-2.49576203171935,-1.17144503877784,0.285888803060883,0.0292332035660275,-0.303096884381949,8.64032741124731,2.37212915593064,1.44494679455939,STAIR_UP
2.9,-2.2106708385901,4.40094946869184,-0.870367463122677,11.9211993372235,-4.13358888306797,-0.0850759109556978,-1.3390024767464,-2.10475477007341,-0.190094179057323,10.8656587051385,-1.82649243558203,-1.13941305106813,0.153604867980226,0.0306830273939193,-0.318666225517724,9.4861362961202,2.03029444840933,1.49896346607795,STAIR_UP
2.91,-1.67764369254206,3.93553676697072,-0.907387968447835,12.5631172531313,-6.30643169842963,0.493781160905261,-1.24465906655907,-2.02210763014798,-0.255861843148359,10.6812260236814,-0.427289377711824,-0.780435670442309,0.0534714813726215,0.0074988291865811,-0.306930373374918,10.0368791411772,1.64915818264431,1.46957757365026,STAIR_UP
2.92,-0.856597529511298,3.63685910437129,-0.795510109390403,11.8814284699517,-6.02934307475652,-0.390443645589502,-1.21473259488036,-1.98548029216403,-0.289824221557784,9.63168876626566,0.102064234299432,-0.320599938144929,0.0296695347199534,-0.0181689209048175,-0.283975428704511,9.90785883489566,1.43093058124805,1.65029280370271,STAIR_UP
2.93,-0.40018399460636,3.41492167682117,-0.57626253272346,9.48695310252378,-4.64988753427679,-2.58373328793453,-1.24756075461005,-1.97306417655366,-0.301639270369291,9.24378132284483,-0.300931161247934,-0.353756646387783,0.0701101504262748,-0.0644714078367005,-0.270324370310569,9.30047434259586,1.2763477569366,1.44457086896091,STAIR_UP
2.94,-0.0776237816749515,3.24463928532132,-0.361473811658484,7.50637894000193,-3.3921413587809,-4.17344406625523,-1.36236013119986,-2.00694878082881,-0.270864602586091,8.94898302487052,-0.226367148695509,-0.356867435570548,0.117176589648833,-0.0830735552584229,-0.274879603757258,8.6458224885043,1.07248713996055,0.984232200993435,STAIR_UP
2.95,0.439498075423187,3.09450653666854,-0.23339040710681,6.22729302917651,-2.20170876112771,-3.69550737919277,-1.50499661032878,-2.0341093351426,-0.245027900900942,8.47289867559901,-0.84425103418064,-0.652577311810893,0.155212801873738,-0.0601540986867023,-0.284283427356318,8.02978530665802,0.842856316716907,0.836518668289716,STAIR_UP
2.96,0.647115732201262,2.89265721593126,-0.257945724155187,7.09186752761463,-1.12756574603796,-1.55949625332531,-1.68067140192501,-2.10737408774968,-0.2752432447625,8.27120299975515,-1.9245024737484,-1.4176844152953,0.16630720010873,-0.0219790968714463,-0.300126840900258,7.48727021523701,0.633051942080165,0.510928781140359,STAIR_UP
2.97,0.36971316160525,2.77886940924576,-0.316861182257131,7.76478007102221,0.0826635928730974,-0.894802270598848,-1.81071003463099,-2.17024592616594,-0.296539456783733,8.60024326725349,-2.698314825019,-1.58440011282878,0.19171637545139,0.0157478783152735,-0.304390293910644,7.08462482339765,0.530279839599172,-0.050303168205999,STAIR_UP
2.98,0.121145196860855,2.61955132186337,-0.365222658880904,7.0782642797378,0.875076651201731,-1.61066200434885,-1.87734541503203,-2.16223106373128,-0.304296555425898,8.75293610597273,-3.41022104730328,-0.545989506391688,0.226695495010118,0.0668852246683776,-0.313867499688561,6.73000774766634,0.482180004010328,-0.135810443162122,STAIR_UP
2.99,-0.114249200665121,2.41805784959125,-0.422631962331519,5.90590897823626,1.46168988763102,-2.2564602191878,-1.85283431256779,-2.16751555267316,-0.334948003573055,9.282600116271,-3.81869759420611,-0.487424389356708,0.207849724587659,0.126385709983696,-0.331502838552093,6.61598709404631,0.633965804270725,0.237645350254868,STAIR_UP
3,-0.369843210871048,2.2139755976321,-0.44550144251902,5.76891553955081,1.79074563338653,-2.69582379460719,-1.73741106643869,-1.99667040157964,-0.324138597690629,9.75570763908503,-2.62027378841911,-1.30732185561725,0.193788693261151,0.156438082056938,-0.347836097291135,6.78228650101789,0.918651250552004,0.0037128484321516,STAIR_UP
3.01,-0.660950134088577,2.05422088728033,-0.39085547280332,5.45256466734731,1.44972306209802,-2.75804890138757,-1.64509855145768,-1.94369160519334,-0.320776889328941,9.61928191006634,-1.5545692625747,-0.171575223842356,0.166015592963082,0.135306243933298,-0.381599659579913,7.30103795553431,1.10225769262616,0.113273323923549,STAIR_UP
3.02,-0.94644291639098,1.85102254332535,-0.30361460271944,4.90055292011419,0.684638601752162,-2.65858601463604,-1.62558607227084,-1.95638017177435,-0.441155910895718,10.7584404712968,-1.12688012089407,-0.320148929807951,0.106383589405922,0.140829487208917,-0.441274640148624,7.99486682715901,1.33480512800347,0.474387295852504,STAIR_UP
3.03,-1.12581629273344,1.64918381404159,-0.225808655892322,4.10353950587153,0.369058394533239,-2.38301543147116,-1.52572421752376,-1.69647479759936,-0.478783125815618,11.9117386052777,-0.904266860670026,0.161873247853091,0.117109893572132,0.137951427185812,-0.480605389081794,8.82547587560589,1.73889927373057,0.338412222603476,STAIR_UP
3.04,-1.18787529721119,1.48397611382992,-0.174848311551882,2.73138694819477,0.333887737744819,-2.22622608039228,-1.351395568554,-1.48202307431077,-0.467484375244687,11.7313481370512,-0.787772847229854,0.54333129950007,0.155821796145804,0.177440137386319,-0.492046019313965,9.65798812056934,2.02617354673599,0.201747068890113,STAIR_UP
3.05,-1.26964210799751,1.22124922762841,-0.148884416691363,1.80070444325879,0.719903954993771,-2.68997039038397,-1.19561150246532,-1.39160269990989,-0.483998507737099,11.625886288155,-1.25022519115519,0.149481361612783,0.163352825079547,0.252283164673408,-0.471470531336756,10.3098947743976,2.20997978504221,0.759511216659755,STAIR_UP
3.06,-1.37894565993072,0.886155654775383,-0.091664869928572,0.670670530849818,0.940942012024074,-3.45943523422032,-1.15696206724083,-1.39771281515297,-0.473959147215108,11.997307906281,-2.16816029097578,-1.01060555054948,0.208122137783154,0.254887735065512,-0.424449758702076,10.7035684362911,2.46936347621136,1.12214152789078,STAIR_UP
3.07,-1.3831471776585,0.587501468160843,-0.0395696768107905,0.254928263138145,0.737903587808243,-3.39476884769752,-1.10198910131206,-1.37271008399912,-0.429561313004699,12.019273157538,-2.55739017988617,-1.57193472534063,0.225391376803336,0.218090403612858,-0.370366173041394,10.9913321402042,2.59836030379619,0.883880730480936,STAIR_UP
3.08,-1.19520615153709,0.323922698573745,-0.0402242892299799,0.389840003338111,0.0941980970937691,-2.43948539698226,-0.904920748112336,-1.338995150844,-0.429964205517013,11.8203716874896,-2.85045428505949,-1.75161063431541,0.238713125763094,0.183506845558103,-0.314525439516858,10.9395071638509,2.69239175094573,0.622338315144197,STAIR_UP
3.09,-0.913519344327829,0.0534147625975898,-0.0684900090530907,0.453207781577861,-0.218329150530717,-1.07128569285557,-0.71243601710135,-1.35317402343817,-0.481276577121141,12.0799318908316,-3.44608157995472,-2.03368368627094,0.228939502879088,0.14197907725459,-0.289741668474112,10.9758843065836,2.70824033989612,0.511900168106985,STAIR_UP
3.1,-0.673855895829664,-0.275259773004835,-0.0935189778734023,0.701180953227245,-0.380315937121756,-0.141258965661882,-0.443613571363002,-1.11247781288402,-0.523557921637495,12.96087951491,-3.10891548193651,-2.20315954834147,0.215505345014893,0.0929003852662989,-0.265559656666525,11.0281470042548,2.68773544319642,0.148219416807916,STAIR_UP
3.11,-0.5481551141739,-0.641939228582561,-0.104532233416997,0.845546099577765,-0.652769525014028,0.605272003824787,-0.181674546885661,-0.91678657548229,-0.551135795666875,13.1435870587614,-2.50937840694412,-2.00306961027562,0.213052103600397,0.0363916704014093,-0.247899971408006,10.9234730898733,2.80736893582804,-0.170733339844032,STAIR_UP
3.12,-0.5061340318328,-1.07715448469122,-0.129700030882636,1.44932393416744,-0.319156034227842,0.809000782587268,0.109375887672777,-0.743922930768294,-0.553501471348205,13.8549472738117,-2.15034192088788,-0.839639186696329,0.214345175924131,-0.0102164062234932,-0.213724316569976,10.8281746128921,3.00054423402908,-0.225508751554471,STAIR_UP
3.13,-0.377921404896993,-1.44862029804647,-0.186105714147247,2.30325632110273,-0.103516707348797,1.06639992682116,0.369566813444881,-0.5822214556371,-0.551877433441919,14.7593925575708,-1.6990376623698,0.164497975657841,0.188520059567238,-0.0588779142246889,-0.171897859536333,10.8867445250054,3.21815430487821,-0.129494475890544,STAIR_UP
3.14,-0.0583726063366632,-1.76893155879962,-0.336805383541135,4.58045597880701,-1.25599959406571,3.91150065120698,0.612301676925279,-0.373612789082642,-0.557532949418771,15.5293702278545,-0.325478875633365,0.521482902996613,0.137143610454156,-0.101961217167576,-0.122220055362838,11.1884472751275,3.72408170517863,-0.213742380772193,STAIR_UP
3.15,0.348798635967363,-1.48012011168267,-0.526428521828453,8.53662199586196,-2.93138006606611,9.2239662621446,0.744204139328575,-0.211363297365961,-0.590743339207245,16.0102795760252,0.701514150658444,0.895771839566039,0.0828115246617659,-0.131716593103484,-0.045862053090853,11.724025064164,4.28367239456936,-0.26816144768526,STAIR_UP
3.16,0.860968979834232,-2.01125243793693,-0.570499873598608,11.2486508687684,-0.967711568277941,6.09251885978712,0.722249926369731,-0.015050752527303,-0.583043551413832,16.1753620848313,1.62432417898948,1.9032198435735,0.0200568673227094,-0.124527414097273,0.0479949203189014,12.2073667165571,4.72931889166736,-0.0191109714618983,STAIR_UP
3.17,0.804504727589098,-2.96886170193257,-0.397607651900301,15.5202874415642,0.388717610834559,-2.63923362438846,0.60273578316063,0.197219680744565,-0.515158923789934,15.506938577894,2.55756094645219,2.79779707766387,-0.0760904155302182,-0.0632281565215376,0.111100940675417,13.0448781749185,5.00164631796004,1.57284713548804,STAIR_UP
3.18,0.50250409538003,-2.7217918340403,-0.474692216810048,18.3439598938181,-1.37312049416486,-3.99010745854843,0.37205241259793,0.325555102155582,-0.50945809712254,15.0972678709947,3.186213337509,2.99282277957213,-0.226876806964045,-0.0542426808174729,0.106842060750985,14.5894860568163,4.78143887756606,3.57226221759507,STAIR_UP
3.19,1.81421611000176,-2.51148781311178,-0.718838407989496,16.2476617248247,-1.23524465577277,2.06032702478863,0.102364910043991,0.342017518380628,-0.537172574976032,15.3777320303552,3.0085835576412,2.8420968419052,-0.402498524998008,-0.229409384582707,0.0174402222776903,16.191201106467,4.08199314053157,3.17361122309987,STAIR_UP
3.2,2.05548891461623,-2.70412723581981,-0.753054062014006,12.1926955476439,-3.86344760890649,5.22005227066552,-0.162537575196263,0.376174669489417,-0.529065263609641,15.8778920423683,2.77767302828688,2.54082496918499,-0.47872112493457,-0.433621808007397,-0.0907308908431745,16.2566308318989,3.43159259190905,1.87557690540278,STAIR_UP
3.21,1.25117091632758,-3.2714619363445,-0.679156029953581,10.6089151460082,1.32958210221531,-2.36790104632307,-0.312826771400269,0.484593015301949,-0.441768201520216,16.6894164323573,2.89746020734875,2.93568061957292,-0.476071141707351,-0.49806069777418,-0.15416608511317,14.3311236468373,2.99723918406963,1.46127026596548,STAIR_UP
3.22,1.69904905357601,-2.98744046795627,-0.207382404436099,11.2016233145095,1.47317981003221,-2.43803960745917,-0.352960793112698,0.705311462647846,-0.240359729536917,17.3100218726419,2.55276168279818,3.74136316042055,-0.220671452760013,-0.385657216015011,-0.112195139674134,11.6996038935649,1.91945131208864,0.73131194683348,STAIR_UP
3.23,1.75570051472992,-2.29435440115974,-0.0884638763702485,11.0994529842828,4.10262420041318,5.52477434846554,-0.268630269093259,0.993197969208335,0.0384498943859328,17.0670086303816,2.17412597818961,4.13246187632181,-0.140963201145672,-0.271538121488429,-0.0460095518880386,9.6527936833348,1.04437559754388,2.69120770711755,STAIR_UP
3.24,1.37634736206967,-1.94129008396987,-0.0943352444998598,12.6158431285069,4.42247502050851,5.82449282814436,-0.306456201269318,1.42545880038674,0.324601144147084,16.9853923789158,1.9750107087282,4.98058892678203,-0.29339340381706,-0.179607669605445,0.0755041461513974,8.9717071465652,1.00585721813387,4.45021418192404,STAIR_UP
3.25,1.08380750903295,-1.79479022561194,-0.0763111498546213,14.0204101682772,1.47284444690893,2.7441891638191,-0.662504908614572,2.00139053470811,0.490593364530559,16.5441641003414,-0.454681452484726,6.36034649471042,-0.312992726737706,-0.0445224293101419,0.23585207554505,8.87488232117549,1.0101481471628,5.30785348445212,STAIR_UP
3.26,0.932341406223342,-1.8661133171139,0.0461660754135495,14.0616718591087,1.23801624201687,-0.935164579511028,-0.825207509368189,2.61587268193361,0.459205370763114,17.368920342111,-5.65140111374141,6.42522741431229,-0.304771693965673,0.0110679109548219,0.37607917426788,8.562913668818,1.03439381223697,5.5534251468596,STAIR_UP
3.27,0.937293948710812,-1.90179909667147,0.300665408655838,12.4828308575989,1.9124774622188,-0.680814561290843,-0.351740283164872,3.29340389690166,0.543675407998762,19.0926450778523,-9.89294989368174,4.25259290193207,-0.310863746944975,-0.0527205746188344,0.470276037660821,8.40415690710068,1.27183430132581,4.26082041091081,STAIR_UP
3.28,0.937293948710812,-1.90179909667147,0.300665408655838,12.4828308575989,1.9124774622188,-0.680814561290843,0.847300445575881,3.93659027476077,0.855116781736135,21.1853410704832,-10.1112073907593,4.2544263214134,-0.268263985367623,-0.074549989328607,0.525156702946023,8.51306261475338,1.24501870058363,3.13524322245124,STAIR_UP
3.29,1.01414951918744,-1.8363262280029,0.508116429983051,10.2705355257759,1.25257283010539,0.895745981699822,2.29676143454874,4.50248237416195,1.09853381144784,18.6946264237579,-8.38168133543931,5.38026771427773,-0.272451968439,0.0242942261585575,0.567491218856944,8.50236539878429,0.930559228489956,2.56461172513586,STAIR_UP
3.3,1.08046997075757,-1.78722203678972,0.588028248796734,9.5940286654596,1.07936027349308,1.10376168105352,2.50819131425902,4.03694972449733,0.988932445873157,14.0677179102843,-4.62653800214777,1.46804615485191,-0.33911965387984,0.154705408760582,0.592784490502489,8.31447638229231,0.664192180996738,2.70980901572062,STAIR_UP
3.31,1.17892538857444,-1.73162893897197,0.547178481225424,10.2043778631465,2.01832287741308,0.255601597432221,2.14776756658268,3.59888011560878,0.758236635083598,14.7810135727868,-1.53229290819883,-3.08733292827042,-0.420386992225337,0.204646840804398,0.583748365202433,7.85037821522261,0.617737613222111,2.70091995184906,STAIR_UP
3.32,1.1165393395267,-1.71250132127197,0.43354664424255,10.1195707449158,2.60746954120528,0.0735550393463696,1.66476566588546,3.497728496626,0.597939133029979,15.9831664458357,0.101794235982461,-6.95771452403308,-0.400164371093053,0.0989743939594639,0.541079027017964,7.38421648901906,0.662469840787944,1.45021750942672,STAIR_UP
3.33,0.928413146011464,-1.70648060023456,0.31918160321396,9.41987920382867,3.14761743413513,0.0913740730258282,1.59783861731808,3.3399301543183,0.476230568152572,15.407213971762,0.17764621055923,-10.412916215275,-0.277262946554758,0.0004081397360307,0.486629261797758,6.95900367118605,0.57411111029992,0.656889967621767,STAIR_UP
3.34,0.816493945097688,-1.74825745100995,0.281088002597667,8.93416512030169,3.38536912540634,0.0705320520651487,1.41071242582271,4.14678502568378,0.371416490201501,14.9333587513475,0.391506261462892,-12.808690984888,-0.153094971369322,-0.0210491634066667,0.411575719674609,6.65828799886851,0.224605435908061,0.518693890539204,STAIR_UP
3.35,0.845427276074191,-1.7198699443409,0.2864207708152,8.64857020529657,2.67854679944359,0.0448059217204614,1.03430148755063,5.08801818888164,0.410141394954934,12.0196649521931,0.135795827371133,-11.2350940932444,-0.0708301466437367,-0.0207649830017204,0.335055353119392,6.76550334359579,-0.256299939636692,0.623937425715961,STAIR_UP
3.36,0.954494117334234,-1.7451926159028,0.324026231911318,8.56689171684143,1.67937064278726,-0.293556453779844,1.32095362343772,4.96438013209252,0.429725888785098,9.4803218683089,-0.079390130513967,-7.54296161543469,-0.0066410828041801,-0.0443111233431278,0.283753585474197,7.12422874062005,-0.657247377470332,0.583990883556178,STAIR_UP
3.37,0.98309993819222,-1.78446031366722,0.360274692361312,8.8254223819178,1.83193827808575,-0.423949492532685,1.57818332137443,4.68244389094762,0.389791321548015,8.1521216442001,0.682004978575915,-4.55696271173999,0.031576690876538,-0.0551926746641695,0.286143919460329,7.69011221009891,-0.852960340680928,0.883522349313778,STAIR_UP
3.38,1.04224418048155,-1.79823616678571,0.40990352167808,9.26825517601228,1.94954711325247,-0.332372692108132,1.67593015320822,4.19548744131005,0.381639750843687,8.57750914661193,1.51825364293593,-2.08222867171844,0.042067738599502,-0.0569738793026139,0.31575858462143,8.35348223453659,-0.829745121634433,1.26045959534502,STAIR_UP
3.39,1.0317275496967,-1.79470305525093,0.439250732356173,9.65331510423358,1.92571902875242,-0.0478147212075753,1.60303703435243,3.71936419439983,0.47930092295833,11.0846117500837,2.54585414194716,-0.754010510984308,0.0106158143810396,-0.0595205158168076,0.357269119392443,9.18833969007012,-0.478488573375572,1.5849234585965,STAIR_UP
3.4,0.985171784648209,-1.77823997988009,0.440141153408313,9.67342647658973,1.932594129027,0.109463614106594,1.50413618006081,3.51341121795234,0.503854742903075,11.8835039295783,3.25985443388983,-0.515766415004461,-0.0466269396151435,-0.0558841177363925,0.401452194726185,9.66402408645948,-0.0644814763334395,1.63614065052606,STAIR_UP
3.41,0.949268488834696,-1.74696385994125,0.436632143527951,9.59228559934938,1.89133344698072,0.444291319604615,1.21674172966757,3.64683010074763,0.355921995476427,10.6613326792151,2.99972210960214,-1.36784385586933,-0.128773602917109,-0.0412820624327588,0.431372629056624,9.61769041039843,0.260923884982917,1.54944680135599,STAIR_UP
3.42,0.900867812074333,-1.70430782135216,0.42842586841592,9.68854556584356,1.77353148909657,0.736663479307751,0.699971086998593,3.57461835432413,0.229502791679507,8.25598279145595,1.99938153407369,-1.90251038190512,-0.195181530063968,-0.0102913762827985,0.441149948028558,9.14293109713773,0.531872675022401,1.37534893601809,STAIR_UP
3.43,0.866560677813797,-1.68001978534068,0.445953611884033,9.74841849316119,1.41028814448195,0.899039991118169,0.196936793042868,3.28874740951343,0.178678573554102,7.20787180852419,1.46988432546829,-2.02124054799585,-0.249511453779815,0.0508924775696709,0.422115189063984,8.34269839926296,0.666363194006909,1.35531708618484,STAIR_UP
3.44,0.826665554584069,-1.65120015127754,0.468287529953456,9.68444706443809,1.43704431981495,0.867547304788141,-0.0953414353901434,3.13290055562618,0.239464648140775,7.32621662362829,1.02583107021951,-2.01181940430388,-0.301897556130109,0.103140341152082,0.380959819469823,7.74323531841839,0.801561509965825,1.37043576244528,STAIR_UP
3.45,0.873331668397516,-1.6307451496812,0.490373231580317,9.33814424845213,1.96934149900545,0.425454485917827,0.0201693796473372,2.99701503305423,0.324497883212201,7.49130000228336,0.290322159872571,-1.73152070373865,-0.341765024507847,0.147042551579555,0.329819990021339,7.2415061974804,0.839282932953348,1.12691962612465,STAIR_UP
3.46,0.999980336865909,-1.61174177813851,0.488124825804019,8.93443541646554,2.11870485288587,-0.0128613811467003,0.251051786107492,2.79258451278419,0.405356900871288,8.22263004038574,0.113504748757639,-1.70054783146269,-0.346531409761737,0.167980787803036,0.277526802194082,6.98613085797896,0.821463575852501,0.754487637792515,STAIR_UP
3.47,1.08919975087509,-1.60020675576313,0.453172317731908,8.3106532692823,1.85870788587441,-0.462726497464805,0.470858438950221,2.63419176720207,0.470567961484465,8.97704615598999,-0.128330320294492,-2.19562681218368,-0.335679245045268,0.190552323416651,0.227410579033414,6.75349738672487,0.703817166541856,0.610144942705271,STAIR_UP
3.48,1.11588334115538,-1.62558152926507,0.447237966772847,8.35512526419985,2.1646015469781,-1.02112819422603,0.706446801516526,2.59606671962543,0.470745425981177,8.17244298418903,-0.975769858473822,-2.60502273578338,-0.353157253793771,0.22047465371944,0.190766400582424,6.79608252954008,0.425992374535028,0.762770307115129,STAIR_UP
3.49,1.15569302231488,-1.62816467117396,0.463207761520005,8.81631012651232,1.93815087865277,-1.52001980630327,0.932326708052984,2.5359423492895,0.404306234848717,7.07596560767009,-1.44134553004346,-2.46173963214497,-0.39993456517928,0.259544942005137,0.16433148412737,7.05619214355129,0.191972955118987,0.861698901319505,STAIR_UP
3.5,1.13435322793274,-1.63336321545888,0.464840123269847,9.01278486815418,1.77553447926799,-1.49576081820496,1.02831329713742,2.43136379033362,0.300190631629065,6.31570550803426,-0.98904479127959,-2.02370591540685,-0.407084819740576,0.306140729092765,0.172733939755356,7.52076255042381,0.0103485910334595,0.739653947510141,STAIR_UP
3.51,1.09581495849713,-1.60002101859594,0.432101384539101,9.3207635454687,2.31686830205162,-1.42986164926982,1.14229183331861,2.30813328494379,0.197060996900643,5.92527866455266,-0.364134851844288,-1.63038300855982,-0.402051071514299,0.342351973004265,0.189837386710155,7.92355164037662,-0.0670229011923598,1.07221276400282,STAIR_UP
3.52,1.1198192621476,-1.51092700368833,0.38661535393455,9.28086261150622,1.93056608130316,-1.25167147797802,1.34571056494866,2.16572153364789,0.0915624493581231,5.09084253763651,0.241819215468899,-1.57556444336939,-0.41246004794072,0.362259664906555,0.227010905187703,8.37156930759768,-0.0982204758315673,1.39181070433974,STAIR_UP
3.53,1.17582136585555,-1.5509623057874,0.432436329641261,9.26990924799613,1.39961923001309,-0.928940605689812,1.5380555898763,1.9692166299617,0.0152967145502975,4.32697228977099,0.651457669139601,-1.35634902337119,-0.410632908396619,0.329801604671692,0.254668697590779,8.78857863233054,-0.217873522165448,1.16979955901734,STAIR_UP
3.54,0.928349794185199,-1.38471213788408,0.500838986277054,9.8452981566929,0.598910480661878,-0.515048775093092,1.60708019744435,1.76413951734742,0.0055851581275734,3.830874643644,0.74905434842272,-1.00145289598709,-0.369369021327261,0.313677820903323,0.274091279623764,9.08312419793823,-0.338361915263005,1.05767658424721,STAIR_UP
3.55,0.698110934648168,-1.20940155945868,0.542862666245581,10.127554633666,0.494464390315671,-0.31169737058549,1.4961707045687,1.56750223179178,0.0010602636920681,2.83166576122649,1.06066686229549,-0.693186418662057,-0.334800176092362,0.326212500798103,0.280205476069478,9.33560720282683,-0.448055382208166,1.40969456121198,STAIR_UP
