time,left_angular_velocity_x,left_angular_velocity_y,left_angular_velocity_z,left_linear_acceleration_x,left_linear_acceleration_y,left_linear_acceleration_z,right_angular_velocity_x,right_angular_velocity_y,right_angular_velocity_z,right_linear_acceleration_x,right_linear_acceleration_y,right_linear_acceleration_z,pelvis_angular_velocity_x,pelvis_angular_velocity_y,pelvis_angular_velocity_z,pelvis_linear_acceleration_x,pelvis_linear_acceleration_y,pelvis_linear_acceleration_z,label
0.01,-0.0121309587469471,-0.164769542794725,-0.0073417072084224,9.09352620704277,0.130199813056606,-3.64890801524565,0.0371955617131715,1.75655078594368,0.204319360484764,10.3663893153703,2.40431093083073,-1.92191214339112,-0.110522834387358,0.127830501686256,-0.0156475393735831,9.9021597738651,0.161141909137832,0.0952188645189747,WALK
0.02,-0.0136327706126038,-0.155098423184387,0.0043924327724567,9.30405059967909,0.631932889185355,-4.00966947595845,0.0801446663937704,1.80817163377877,0.212459551687945,10.7707389423312,2.10881438315287,-2.60810070972175,-0.110349256678947,0.160840489506906,-0.0250328303052866,9.97455461947006,0.0166293449541178,0.0356477386025421,WALK
0.03,0.004632978747584,-0.127373509682831,-0.008572047633371,9.41592488658137,1.20064238775203,-4.26801685067398,0.107795874258327,1.83881685002826,0.211460452568537,10.8726055372578,1.6550422049882,-3.07753823446855,-0.105867643713096,0.193655092612182,-0.0358480771834462,10.0519298507153,-0.124192925889316,0.0031000496742213,WALK
0.04,-0.0124785403788653,-0.115863863359864,-0.0175714751099805,9.55332122733511,1.31830726889462,-3.75971814143477,0.145496152761416,1.77228058492063,0.226298120421988,10.8692926729701,0.833714119620731,-3.7582727708651,-0.0780446928831751,0.214137782404968,-0.0487059550245482,10.1062000096355,-0.176542005922608,0.0437769244234353,WALK
0.05,-0.0769419436089849,-0.0991380443227624,-0.0271340653650335,9.5746003544188,1.21865895676634,-3.43559357535007,0.270446083243455,1.64775109170413,0.254572117725479,10.4505501573013,0.975026315691692,-3.9946817685846,-0.0506207348863794,0.214409325425853,-0.0621618399266493,10.2269433806008,-0.173475845705715,0.117234975762687,WALK
0.06,-0.104267525649426,-0.0979512338275401,-0.0331484550840461,9.36482751395314,0.887927122662013,-3.16283230997734,0.391674822922252,1.52323328096763,0.252765578206372,9.89411687560668,1.34417869723807,-3.9955095705444,-0.0251011361190551,0.206799842449533,-0.0680659378287443,10.3275096521494,-0.118162267611707,0.23936794312053,WALK
0.07,-0.0995039311753497,-0.0980083797519622,-0.035965847928756,9.15371846847327,0.445204564534567,-3.06435344448802,0.464033973701293,1.39504801688,0.231143858843869,9.60633800662051,1.4335635582199,-3.97867116131983,-0.0124904256372966,0.184090071790661,-0.0537392790980934,10.3148666259194,-0.132580979571156,0.263968187615401,WALK
0.08,-0.0472411712857396,-0.112360663389696,-0.0253895181302812,9.05588140213317,0.396228843057694,-3.22241299355245,0.503858023519563,1.31953869841208,0.232084857211565,9.5646736970147,1.3554928734612,-4.02314787933706,-0.0159654960011896,0.146818796773052,-0.0235272349927277,10.2389281394281,-0.0077393984228309,0.232765234420433,WALK
0.09,0.028883425894347,-0.117647788595881,-0.0156686692957604,9.07455445206375,0.569539343357174,-3.44563334783958,0.525214783618099,1.27646013297453,0.246392567808856,9.24702795063869,1.20828523541201,-3.96713068454508,-0.0098171782046106,0.110779891627774,0.0136920218901618,10.2407072290786,0.111772572078618,0.133491273080392,WALK
0.1,0.0667710619698266,-0.10786540465843,-0.018753873768812,9.21025760837491,0.922431154402525,-3.54149463793092,0.543702236969393,1.20938263048432,0.236515255209288,8.79097396616654,1.08036090494945,-3.62944100862167,-0.0020328701900145,0.0945889975302912,0.0661516415720073,10.1493855889551,0.282167024951717,0.167895763388103,WALK
0.11,0.0669608986646348,-0.106190958524952,-0.0201001237893638,9.30098035281927,1.22568618414492,-3.50270169112998,0.568028092832958,1.09122978894382,0.22262429500953,8.4799502802954,0.826249305104571,-3.20083936330677,-0.0141880993702631,0.0888686728706025,0.109219612529516,10.0619743357566,0.373601328026185,0.133135823421373,WALK
0.12,0.0663068701850322,-0.0992306065618557,-0.0270936144358909,9.28311155596603,1.13938237190225,-3.2312825897496,0.554212593760791,0.95919441826023,0.214747641149199,8.14671138791613,0.755695511791251,-2.93460625952873,-0.0300898137337129,0.0938606986481597,0.146139862941491,9.9551784470883,0.460675220127508,0.176769969157317,WALK
0.13,0.0517000619491215,-0.102229681326771,-0.0173790398049021,9.21614448954574,1.16583535989293,-3.31883371390422,0.552173266974788,0.783522791281988,0.195112241153664,7.93259201059103,0.837004823264296,-2.73208064426485,-0.0493037724397532,0.102749785611943,0.162753902561903,9.81127061243326,0.445163128846959,0.188107929533953,WALK
0.14,0.0630196705376178,-0.0873400417750363,-0.005975739964962,9.24456974784305,1.05794018262341,-3.32127123358035,0.604351441847534,0.63589945707307,0.163727185778254,7.80187900027785,1.06423764781359,-2.37199251994704,-0.0671623138738786,0.119044171303172,0.162942570267794,9.67927572005818,0.411569484231189,0.150201413432015,WALK
0.15,0.0204740957361946,-0.054091153707592,0.0015166785968117,9.1796614531143,0.842320543090625,-3.00317346218546,0.696488045536356,0.525504182964276,0.141428982708283,7.69743292344879,1.22908946959912,-1.95205327205279,-0.0780242869308938,0.134421386915492,0.146900190032146,9.55126481629634,0.23991780812886,0.15157149390579,WALK
0.16,-0.0470267638214649,-0.0424971459755932,0.0131747578638328,9.00040710106373,0.62928604004002,-3.07199139530441,0.773194431144253,0.431557704493157,0.117318767667851,7.60164179453915,1.39499304289126,-1.6883200062605,-0.076559206258606,0.145947354996178,0.125711703613846,9.52606117959795,0.147422294358186,0.12762462199578,WALK
0.17,-0.0584856440555589,-0.0402933915575748,0.0297762585447541,8.99830438866712,0.333546293810543,-3.33670677238998,0.804298147913111,0.338704976035446,0.0832057454690021,7.63342591092868,1.57459234505827,-1.53050164678578,-0.078964810988511,0.153078343511988,0.106263612650072,9.43873148234854,-0.0076696981981598,0.171440684469719,WALK
0.18,-0.0527292576693108,-0.041398971876491,0.0361141850818412,9.0020669096319,0.0656357210998898,-3.62019465445066,0.780351348017371,0.252388729835748,0.0522263867773924,7.75630985714003,1.49503737446116,-1.47534525106798,-0.0757172621383508,0.154823015488238,0.0811511543247263,9.42979474140938,-0.0730367991431574,0.168009969654751,WALK
0.19,-0.0689260845270051,-0.0671209337933619,0.0433683643246261,8.81811965585095,0.0671944507608565,-3.52029141965944,0.689985850743106,0.184112517316199,0.0211277544434602,7.70635480557131,1.47307117739812,-1.31679784213402,-0.0603367155787102,0.150767640191655,0.0702213121954293,9.4002679725829,-0.10997986482238,0.0907210122291887,WALK
0.2,-0.0824048023715243,-0.0923450955907478,0.0585148736405456,8.59439997913572,-0.0594836553713842,-3.50350995477181,0.561760537446971,0.108685254444127,0.0025591634533936,7.68760148660556,1.62980470990593,-1.04053830075655,-0.0351270485978496,0.134019824594619,0.0628679563735351,9.34669017545256,-0.0833682570790403,-0.0391501569070496,WALK
0.21,-0.0623910574874551,-0.133939190602718,0.087439174400151,8.50377908330543,-0.23408939225942,-3.70924231773901,0.43612272156544,0.0424099951744807,-0.0037135324575238,7.81143061159595,1.7336785164883,-0.799129459857903,-0.0090245730307948,0.117488779278798,0.0621982095722478,9.41379226536184,0.0294740275200086,-0.0998907227492057,WALK
0.22,-0.0141135695539644,-0.16719233318179,0.118612760092564,8.67490100840609,-0.136428264478783,-3.85577712017305,0.333658418704394,-0.0207098969392178,-0.0014555463786333,7.98349450129457,1.74974023236492,-0.586922296584129,0.0132356320625804,0.112715936336501,0.0688670792479584,9.5181604048866,0.113628408005936,-0.189957522537905,WALK
0.23,0.0132660591797399,-0.177807514585133,0.140382736152534,8.83277436860183,0.122828072806052,-3.49508689358992,0.239988602732843,-0.0988165183793424,0.0048345945979473,8.10802359355241,1.66031257532206,-0.438538962625352,0.0272113517450718,0.106732685134862,0.0728373098289422,9.60173116996422,0.158308604214346,-0.248235397551452,WALK
0.24,-0.0017741675901555,-0.182905239098185,0.156102701493267,8.89890987839101,0.349839156042134,-3.2776695634457,0.125757141995067,-0.212934698380476,0.03372363870823,8.22736252298869,1.50311048643458,-0.370565263876416,0.0341327868770579,0.125956450948003,0.0698910163440542,9.64802514623757,0.217433669391346,-0.201350410191755,WALK
0.25,-0.0189343630065998,-0.196790815028869,0.169264927121659,8.95944934841765,0.345999459553361,-3.15976904658623,-0.0251233043018658,-0.334205665354216,0.0872715831854842,8.43211360098167,1.27245199565092,-0.220739338004819,0.0198182433306323,0.15985265701326,0.0606312401952163,9.65644244764215,0.21562620994188,-0.13966663355782,WALK
0.26,-0.0060377923332648,-0.205974865484888,0.173523908900423,9.23743756481228,0.389796259394445,-3.18514801597644,-0.185619524740896,-0.426518347885448,0.153225570870298,8.68437382792807,1.02666822719268,0.021926313393542,-0.0025377293171305,0.183830960604483,0.0537563936731336,9.72155315261671,0.197555463661091,0.0165173032104965,WALK
0.27,-0.0107210740869051,-0.199238792089737,0.186390541194555,9.25870092915027,0.589271294624683,-3.05607878731382,-0.266816745425463,-0.497867702553272,0.223001199718346,8.86917575860408,0.881440387231173,0.228262440135888,-0.0260797852083,0.205286339451179,0.0381149394140277,9.77341609963529,0.121912235553004,0.133101553918508,WALK
0.28,-0.0206281273948598,-0.18770270127024,0.187215367665318,9.28232586288071,0.776896771506855,-3.32939529695311,-0.299015595363102,-0.562781950325445,0.265512953067462,9.0936216538465,0.738454357193106,0.167553679147056,-0.0482991735210106,0.219789347551776,0.0251236939937357,9.80542384014796,0.0362654873785151,0.131640509144397,WALK
0.29,0.0020371398305197,-0.175470562305195,0.184887803898085,9.35049752755119,0.953360420489127,-3.92512399265343,-0.28824443089809,-0.60855925987286,0.296258786427479,9.44742959267951,0.652945140128264,-0.0810664367957785,-0.0618692289026767,0.214289767382483,0.01970570596525,9.77084925994731,-0.0252114146851313,0.188733623473593,WALK
0.3,0.0564196555214056,-0.173195817729321,0.178188812164967,9.42918223212237,0.893551970349651,-3.81650371809601,-0.261847599044202,-0.63550267434701,0.320075618590537,9.79993454046883,0.566792196963791,-0.213460128314764,-0.0753500711927853,0.193365967198258,0.0198297517238008,9.76787553743978,-0.0929268694956658,0.314371525024379,WALK
0.31,0.0197055137939595,-0.182030889018742,0.189643099522232,9.32013624855648,0.830892733485504,-3.10170402100262,-0.24107248657577,-0.644146392828596,0.341710527608009,10.007094257573,0.381170246207387,-0.108305661723708,-0.0784452802967235,0.155054975817088,0.0238147293200885,9.66666276742028,-0.0539143651311001,0.219073199936395,WALK
0.32,-0.0256952461884206,-0.216923530546818,0.207281901618167,9.1153040592731,0.860428067646935,-2.95492900307647,-0.225364311031064,-0.636775979963714,0.361716295167978,10.0964303236257,0.388394427007002,0.0888386427789352,-0.0789799129637241,0.117044078912502,0.026447196265836,9.52360415690914,-0.0406841661409965,0.153457981930756,WALK
0.33,-0.003102715558248,-0.243688766140136,0.237761486578677,9.22322755788324,0.743884012657378,-3.0848261204414,-0.206880292827436,-0.630433986042665,0.367821360199444,9.95622372222129,0.369392787870543,0.322339277667572,-0.0743878356371077,0.0833741176151848,0.0318149790750309,9.35251400633021,0.0190637144688767,0.0842196905785217,WALK
0.34,-0.0085870963221253,-0.241323192562006,0.264060675278388,9.35824054544858,0.716529687556497,-2.96954966954122,-0.215784220215062,-0.634113602608684,0.347578706576697,9.65451978934982,0.11945327991892,0.744425454457092,-0.0709498659064927,0.0570769801556493,0.0243400833395281,9.25995932645606,0.0245099970708686,-0.0198321468783364,WALK
0.35,-0.0342617667231659,-0.229511476127142,0.276740426078321,9.41637825021067,0.559271467410371,-2.7874691446875,-0.235365501247044,-0.656865608801462,0.291550499626489,9.41691144125626,0.0780779655894544,1.22559454429847,-0.0507590171651527,0.026185736048788,0.0206135059694104,9.25087971161845,0.0301292871981527,-0.163989548391587,WALK
0.36,-0.0414608315164073,-0.236032924675675,0.28664754845916,9.29483864956325,0.222419765270053,-2.68344220776345,-0.262038243128542,-0.69684768895948,0.230243462834908,9.22330236334156,0.0114714736774684,1.37909041430164,-0.0480614530604466,0.013287355923842,0.007766038473842,9.15566821494418,-0.0928548515162971,-0.0378778462883677,WALK
0.37,-0.0325784948986998,-0.238558666217024,0.288301537664443,9.20452014770978,-0.0721925507554536,-2.56794785451005,-0.254449020903418,-0.720954013493516,0.175763956287767,9.26852446138507,0.16624632135052,1.45458040881677,-0.0579375649772792,-0.0049151284822907,-0.0039541002651622,9.17478048544206,-0.158106442725439,-0.0099482371934442,WALK
0.38,-0.0101743943783186,-0.229740170812048,0.286977009778771,9.11627842526721,-0.0945228641950517,-2.42087878088061,-0.202576077579118,-0.682392996387365,0.144774233333088,9.20414384107462,0.319858504695616,1.52400115891752,-0.0477142698906826,-0.0242038801444266,-0.0123534636324386,9.20850743896675,-0.187777630055953,-0.0633863153986144,WALK
0.39,0.038995925641588,-0.212216278252422,0.29514263116761,9.25790596497974,0.121818343344637,-2.40360490156287,-0.140838335848675,-0.686002061435347,0.134609811424483,8.97119894058218,0.509467977255884,1.36413558885566,-0.0274080180158828,-0.0385032642342288,-0.02058690068665,9.36930326001248,-0.165691076806153,-0.0429333973743585,WALK
0.4,0.0796985726049563,-0.186438120502218,0.305396097902069,9.53258042575785,0.226802563063809,-2.47115291106661,-0.133356697417925,-0.814089600450811,0.12249051982231,8.86596834241641,0.512851960487265,0.692043502714538,-0.0022281613984415,-0.0415096487374197,-0.0242272081786546,9.68092210132445,-0.065306226018401,0.120486159790521,WALK
0.41,0.115066333222871,-0.141788985010444,0.301982839962472,9.94520004415447,0.234154027769455,-2.69427520512138,-0.163844216215477,-0.99364610898292,0.117067684999974,9.54364570768526,0.287655154850213,-0.102381858805122,-0.0044409855623845,-0.0387960397934479,-0.0096052667697629,10.0133048453617,-0.0048603669966644,0.457442327323226,WALK
0.42,0.20179873546099,-0.0932124466377152,0.298980554696523,9.96296606998861,0.568152853016277,-3.1305097200303,-0.15159356197997,-1.08727463749161,0.137816038723153,10.6700239600639,-0.0035427623242431,-0.465326706580486,-0.0380296039251104,-0.0392036042239251,0.0083332630008312,10.3092009166491,0.0330750064780937,0.553799538978498,WALK
0.43,0.273548634998406,-0.0732411221083849,0.287891558268344,9.87200406513376,0.858092292102097,-3.50748227598748,-0.0442462490749226,-1.0364081536612,0.181138806534388,12.0154074284983,-0.529540983415684,-0.539378031635196,-0.0825858063041611,-0.0415178128249561,0.0349981497766671,10.5137626004125,0.140082337869176,0.732044518133047,WALK
0.44,0.267368045522047,-0.0653572870809946,0.262354212130223,9.7893353331853,1.19892853752986,-3.77437787989383,0.0858890562088799,-0.893928775031796,0.233139585464317,12.9421468083972,-1.17171156604987,-0.0965695611071625,-0.109930863145723,-0.0659588349760029,0.0755445871528502,10.7397949869908,0.346197418992141,0.748188927775511,WALK
0.45,0.245373819324358,-0.0652665039358533,0.223190114525631,9.75371275700751,1.41944197246419,-3.98749402247883,0.154534734731872,-0.818056245583776,0.272068706059146,13.2165570345718,-1.57833258344746,0.40801000742917,-0.111899244829735,-0.0885633280604541,0.118873204351991,10.9000053671095,0.532625557715222,0.773500542474845,WALK
0.46,0.245129849923781,-0.0362695454552603,0.179814231263783,9.9458868582833,1.14621541731642,-3.87665536391911,0.192612265941287,-0.707367447276588,0.297069823260402,13.1238080932018,-1.56670292150124,1.1056588296619,-0.12459527079655,-0.10412887072282,0.153450115799396,10.7860468503433,0.637362076385485,0.870863271117687,WALK
0.47,0.24908746545571,0.0075362058002298,0.153389985441173,10.0802234033253,0.398608438971146,-3.73021841755452,0.246523506722398,-0.52878155298223,0.294888337777403,12.4190827110036,-1.2473945426681,1.83659734187157,-0.161403255513924,-0.1044885771863,0.175156001431294,10.5204594534847,0.545662296243761,0.982706021669039,WALK
0.48,0.23783290195708,0.0564058116266958,0.13926549416865,10.0514846504135,-0.27537079298262,-3.50115960091263,0.218990685833385,-0.434372494183855,0.230295672661726,10.8191780389163,0.355316984058414,2.3374504310768,-0.20222786187193,-0.0951463110081602,0.170634040816198,10.1805281345764,0.285306861578366,0.872487632551391,WALK
0.49,0.215420972449344,0.104114997861024,0.133871232361026,9.9974718933635,-0.780421941786393,-3.55984419865558,0.0210088033107871,-0.572961450132201,0.124991809387087,8.81906108827585,2.39084614246078,1.36393393459934,-0.244339713164966,-0.124209496040463,0.140403168963888,10.030733184107,-0.1192887271728,0.444310506775662,WALK
0.5,0.224949019108237,0.14343266148383,0.114767773059666,10.2692846812733,-1.17661204691294,-3.61492404416672,-0.265796028167805,-0.847665567917407,0.001841575979982,7.25372093490242,3.62455566725575,-0.696845571864613,-0.203608099804335,-0.156993009423662,0.0945647021880261,9.880579912702,-0.294476060318875,0.292512152721311,WALK
0.51,0.269522008146724,0.20424746362876,0.0879933567786887,10.6216622985167,-1.58708382058083,-3.28441070141793,-0.519338289786566,-0.979535343533572,-0.0830095756193663,6.91359271806429,3.45254587756857,-2.19856263929626,-0.0935086879386562,-0.178964813961306,0.0408783950141268,9.77685267461182,-0.539194256009421,0.210248998800693,WALK
0.52,0.347045924097306,0.294681928241564,0.0511837791768411,10.7501902673194,-1.8992510113841,-2.52197059474208,-0.618364648573724,-0.891346908708937,-0.0466660313362694,7.68438136769999,2.34849770390255,-2.7765777334762,0.0013320899478808,-0.192847241401148,-0.0281643599196166,9.77616215880419,-0.7325020240502,0.255341085674528,WALK
0.53,0.493303218278976,0.380212306765955,0.0180036693030447,10.786656277962,-2.04121867369305,-1.70091713964712,-0.683489496253885,-0.798273877564528,0.0876590306358361,8.37604777740332,0.956496128895229,-2.92508509468143,0.0764435028157854,-0.185927453939964,-0.0914697397371145,9.82112229221621,-0.884895349067985,0.489275454451299,WALK
0.54,0.647616602514181,0.462916281991726,0.00671900103896,10.838439331671,-2.11282945911529,-0.953470846633831,-0.80017653940169,-0.84832299597447,0.21212532893453,8.64786320496632,-0.0215359575014322,-3.0536873504231,0.158314667441771,-0.152676155510833,-0.134312321044453,9.84432469554652,-0.945349855670859,0.798035948492116,WALK
0.55,0.718608645197739,0.550699868242223,0.0081786759778522,10.816317936939,-1.61638643478496,-0.261904412024059,-0.855749982246904,-0.964939913165894,0.223544042051773,9.24408408839134,-0.807375271080721,-3.07183893271347,0.241482389294566,-0.124541937795031,-0.16229642967008,9.76401226449242,-0.883996773430001,1.07000692644813,WALK
0.56,0.676693199998555,0.658267697059346,-0.004489159876153,10.8400847910352,-0.471655939727053,0.335448282510222,-0.851124394950536,-1.02855640339649,0.191833160924514,10.154686642542,-1.61775587831802,-2.82133534104394,0.326698627189438,-0.10128912747054,-0.168678910474555,9.77464900613803,-0.623580052374323,1.28952677879694,WALK
0.57,0.518979787184957,0.761883371564579,-0.0218932729258961,10.9825157181896,0.837595840220985,0.742674199657449,-0.788009726911551,-1.01666830541816,0.175951686761229,10.4862446530671,-1.86785601232549,-2.47851423240254,0.414055720792304,-0.0945838571307232,-0.142519678894265,9.85391418872924,-0.19062331714406,1.40883399959463,WALK
0.58,0.364526802669726,0.859276280803021,-0.0851751269271467,11.131487538804,1.85825405293797,1.0867093525474,-0.71490436898561,-0.99109080598529,0.181177567697171,9.92598908242889,-1.73406512762725,-2.4333344865992,0.483565054412788,-0.0642648609751394,-0.0951218190436051,9.86325219113747,0.328294627201684,1.45610754700376,WALK
0.59,0.275465830015787,0.986851838227326,-0.154093646545724,11.2391443772712,2.27293871118195,1.37762237441358,-0.637560754930943,-0.996311951542617,0.134929801059314,9.19067856137289,-1.46046465513925,-2.87819975913446,0.513717884050694,-0.0319875368617508,-0.0393615540853319,9.73581628095674,0.888050567175282,1.59538040557534,WALK
0.6,0.220368056742731,1.10808437171884,-0.207978420789603,11.2815759547657,2.00732332456828,1.48460885361838,-0.549064100315573,-0.965577732325706,0.0620151477946139,8.80501741359957,-0.625703801971383,-2.96883782893475,0.533965054000287,-0.0334013945939663,0.008217641338256,9.39230203662355,1.34181390439005,1.4293314881245,WALK
0.61,0.183612046861767,1.21900864014891,-0.252392581345701,11.1269456512904,1.51852723934934,1.54775809525444,-0.381649783667423,-0.88248486450762,0.0192781922286718,9.14881101797554,0.0051954946799693,-2.73267560924605,0.551563560402091,-0.0456457573733252,0.0500785502778849,8.98949426790465,1.65190124823987,1.25762613160899,WALK
0.62,0.149635339024491,1.30574767321657,-0.306226475161785,10.8109881509095,1.22067429713459,1.44357740800709,-0.262274801055674,-0.795654066972064,-0.0097152483507883,9.54057402006816,0.270748935031835,-2.36102530173166,0.553759895568571,-0.0575670434912375,0.0953447366208953,8.69045221337841,1.9295009407528,1.11659142950989,WALK
0.63,0.180501470526956,1.4173915654074,-0.367075794088679,10.6369786586451,1.18415730144944,1.30164113663165,-0.260644069476079,-0.742497398874352,-0.022486584453475,9.86138731443854,0.0816453183556725,-2.06270332283289,0.544385949049946,-0.0633444649109792,0.145512184026776,8.61288898283806,2.04141918269235,1.00181580590153,WALK
0.64,0.283996660227029,1.58622718815545,-0.41705564400913,10.4757772164707,0.867217822990972,1.05912621630444,-0.325784751913693,-0.755940560926126,-0.0239252820176161,9.80356928939139,-0.480355703872386,-1.98760285462674,0.490951212483207,-0.0470351371945623,0.182238613272596,8.74611235010826,2.10856794323308,0.904756956973625,WALK
0.65,0.347304943271201,1.67068853110913,-0.3911694018597,10.4403913805623,0.318941626832702,-0.184539282804521,-0.365568341457137,-0.77409174142878,-0.0315405540942365,9.79641441260261,-0.976443463754065,-2.49380355370928,0.419559131559638,-0.0397221744981375,0.222004605143593,9.01483838634768,2.08785155795668,0.945470886616551,WALK
0.66,0.204306507464725,1.85713840688597,-0.389280905323321,10.4513171107475,-0.0289796205966133,-1.30964256217198,-0.33761731569385,-0.753788929118958,-0.0333177799792833,9.61520485891088,-1.04381499531077,-3.047453033182,0.370513082268525,-0.0047890887402136,0.249804992537656,9.21507153889247,2.13017815170644,0.718099851522217,WALK
0.67,-0.0051319620449071,1.9552563704546,-0.383826368367277,9.8343354779535,0.78345173623477,-2.56678517333036,-0.243536695589077,-0.714788615041619,-0.0400994204092012,9.32894197111298,-1.1838174429468,-3.39942291273835,0.326348660963038,0.0198282735916261,0.278095686789724,9.32719055211194,2.24353913456686,0.574873673073207,WALK
0.68,-0.158574069052121,1.79083393246349,-0.436170320085281,10.3602051344068,1.37125765755014,-4.5507896532803,-0.134207232033323,-0.652254771275145,-0.0186757364348516,9.18495971075385,-1.28796853153272,-3.37100227579548,0.263308201005949,0.0439310852698758,0.287265538758031,9.42382182381265,2.3488233720826,0.612960491372721,WALK
0.69,-0.37842853933044,1.81027348873112,-0.576492864646906,10.7046104282309,0.505519086221753,-6.27576459667473,-0.0557116403271825,-0.588096970253373,0.0196555486309081,9.12918300314481,-1.32300903582572,-3.24883368455129,0.171135176332855,0.0467128843366398,0.264011304826908,9.53164209485208,2.40269362914026,0.83366181680862,WALK
0.7,-0.632368702077829,2.06444453994031,-0.662987367094567,10.8182531332768,-0.824848425663173,-7.01468893301188,-0.0302778896408121,-0.534050463586449,0.0390098776796753,9.25153486964856,-1.27737867280058,-3.32373630387848,0.0712731214698452,0.0306539652353113,0.219103031572813,9.74084347231247,2.42209778249195,0.817643064644131,WALK
0.71,-0.793150483981111,2.21461285134961,-0.697180451038025,10.8724824761869,-0.381486829894498,-6.6932080707126,0.0158606739329798,-0.476263248762391,0.0454442982909865,9.55452010890717,-0.937645958491039,-3.10097239802543,-0.0181160180985294,0.0057315642818155,0.160620633489483,9.97285437842714,2.41496677989365,0.626694077285474,WALK
0.72,-0.890703531451269,2.1747184259433,-0.706298748397019,11.375886678046,0.385927516438711,-5.59545459100067,-0.0172096674779908,-0.452281488419951,0.0287327960371897,9.58171142575632,-0.557635861460004,-2.77970146459581,-0.092326667352223,-0.0178671962605053,0.091873667461946,10.1795945275295,2.32586885591941,0.501312244127306,WALK
0.73,-1.01317102976475,1.98683985492501,-0.668134002510165,11.5112051595329,0.050578587724524,-4.60644121925424,-0.0699989329393882,-0.448187639149334,-0.0039935301662336,9.7737247162031,-0.514232386772849,-2.80497558601597,-0.170480556965986,-0.0236106710773578,0.0308196559312663,10.4540166710426,2.11032596090103,0.50628909266325,WALK
0.74,-1.19931055671478,1.82979797755895,-0.533087472367628,11.1698211633267,-0.767259786403363,-3.74747200069986,-0.208324763393372,-0.468306526344586,-0.0006846310778416,9.69710111554606,-0.622596330685073,-3.12552686517333,-0.241048260473211,-0.0250775639866901,-0.0208768075754524,10.7546125480529,1.86335683922806,0.436505600956342,WALK
0.75,-1.23161849662316,1.63832881959589,-0.409744733528587,10.3445382468201,-1.92565712182072,-3.06617558240913,-0.350698909955355,-0.518224331072868,0.0195740426869759,9.79480084946319,-0.558821572227881,-3.46723226579179,-0.305640920867339,-0.0203620582170863,-0.0723203386447322,10.8420584790048,1.466162981816,0.499717036605244,WALK
0.76,-1.07839693785562,1.36087469734769,-0.302256188970442,9.77957971508069,-2.40250313413047,-2.97170543743537,-0.408932993762649,-0.524367340304239,0.0457027900941062,9.84500624020796,-0.464476768666685,-3.54700101095827,-0.349968472716499,-0.0206218882606322,-0.111005259743327,10.7572884209035,1.22440585820893,0.473490554921802,WALK
0.77,-0.899260594259395,1.17184383981016,-0.253425014280802,9.46217185427485,-2.11643505325723,-3.06275716316456,-0.45650576100515,-0.514742350600899,0.084992107865736,9.70377881118175,-0.820027930047237,-3.50283881742923,-0.355489233118011,-0.0071933719084646,-0.144458894771033,10.4939237139272,1.07250254287385,0.443114105617506,WALK
0.78,-0.751582237219259,1.11931655113581,-0.304073453685903,9.2498082427041,-1.49280637492394,-3.14116394105147,-0.499955658332123,-0.480944541387149,0.11725344551268,9.7257591373202,-0.907694278292693,-3.16882648426678,-0.338491904284163,0.0094380834259709,-0.180859189868447,10.3216921947374,1.05272735752944,0.456585681992157,WALK
0.79,-0.586911140626749,1.08336923475577,-0.40370359377182,9.09077262144623,-0.98508378819771,-3.08277763780102,-0.503783614615817,-0.452807979626468,0.131974960358604,9.4901032591074,-0.766073819936709,-2.58197186178118,-0.298414555008736,0.0256000016935966,-0.208633046489893,10.1863438593322,1.03317997402331,0.564739557012451,WALK
0.8,-0.378903712369898,0.98527130406355,-0.468647872268379,9.01116772648272,-0.656467250071308,-2.86495111531094,-0.465609446106582,-0.439176819031512,0.129976945314112,9.13986465837474,-0.810281960913963,-2.31299594516003,-0.2539499171351,0.0317055957296669,-0.233616948026333,10.0447456599091,0.949473362394701,0.756706123484196,WALK
0.81,-0.218715856436546,0.857578590806393,-0.492668553843763,9.14937437668566,-0.489740557732902,-2.50015262860738,-0.411246124291781,-0.417846797762533,0.105059375981777,8.97770740678571,-1.01859132948545,-2.57837348897474,-0.229558630260947,0.0066369996366496,-0.243322849797973,9.90247624668041,0.84952380389282,0.47498813591238,WALK
0.82,-0.161928188360278,0.758967830487765,-0.469568654153469,9.28028925275478,-0.240336606446595,-2.17373256778767,-0.36629966478361,-0.376486560779535,0.063121842972511,9.07723392503673,-0.885824222416996,-2.79569157361544,-0.179580188714651,0.0103239939318361,-0.23797961530691,9.69922625148199,0.753486001881151,0.426315071310064,WALK
0.83,-0.238844306115505,0.695679701239419,-0.413965523663194,9.2430920941538,-0.256880427907899,-1.72623228411923,-0.32538923805795,-0.347288591514772,0.0020302171904751,9.17045925311982,-1.02626596241381,-3.03671033369236,-0.127292872987054,0.0128833562627461,-0.224835069041765,9.5394768650409,0.731966132846282,0.311507651026861,WALK
0.84,-0.421516184315994,0.662579662954973,-0.34760568763695,9.09053035593188,-0.690725084250163,-1.43340060593151,-0.289701868756021,-0.337798910082213,-0.0242461248905547,9.19722174132576,-1.15684067914327,-3.31701999020767,-0.0846984878333118,0.0275733105498888,-0.195037652813671,9.38945664527233,0.764640364098279,0.214244637890926,WALK
0.85,-0.616356896695988,0.630758548704484,-0.278175742825264,8.89219325925399,-1.24559983957047,-1.43839994621382,-0.280896774292067,-0.342454578678284,-0.0206843770319975,9.09869800836048,-1.22010767457154,-3.45735109582551,-0.0339820639225467,0.0547507967193811,-0.163434401327432,9.28969038469013,0.824107387971968,0.131485445694571,WALK
0.86,-0.752545922648961,0.58478355392669,-0.219459832360516,8.61757994458915,-1.4674432860716,-1.62761015841281,-0.301651143685252,-0.359457511488948,-0.008383480885269,8.99602492400525,-0.901360848197183,-3.91621054021306,0.0293878075031261,0.0854853029362696,-0.126233250944401,9.312568008526,0.800839605795779,0.0380760712659969,WALK
0.87,-0.82687899932689,0.529152500712191,-0.169790972096587,8.33793505625549,-1.4247116095438,-1.77731760312186,-0.282286551381291,-0.374840644824757,-0.0062375302023664,9.09442730033193,-0.743798549878093,-4.02972870382796,0.0679794627606861,0.107138828935038,-0.0955944902351962,9.32792525928163,0.795402338435941,0.0206239219643139,WALK
0.88,-0.845166962250019,0.47299556152115,-0.154439352495238,8.14843583202474,-1.27016102331,-1.96390905162708,-0.24857449629193,-0.36454450769874,0.0041159523629454,9.13974438811796,-0.583559330867708,-3.42376340926499,0.106324609572743,0.114360107691292,-0.0773365311783521,9.41029912772249,0.840865188164616,0.0368314226864018,WALK
0.89,-0.831589796615655,0.397145827704055,-0.155372833142373,8.05493117602356,-1.1398553431095,-2.08058857932013,-0.265028326888441,-0.394832931878077,0.0036856155694386,9.12694371676056,-0.571660703373129,-2.85695568851776,0.139731196737508,0.128545050666526,-0.0750589120376396,9.54218482924036,0.876930131618731,0.0214511677970702,WALK
0.9,-0.783967472813867,0.343149454917468,-0.173080750797943,7.99411282963451,-0.958401955005129,-2.19400108418529,-0.272056417129811,-0.421961037092278,-0.0189357647853222,9.09965146290177,-0.505134527840533,-2.65661317861021,0.184796399878067,0.135327633999477,-0.0808482009809305,9.57631428185954,0.994143933471554,-0.0354019411595069,WALK
0.91,-0.711660659799366,0.288884791731673,-0.205548192734188,8.01655389529246,-0.533840259854436,-2.11376510011302,-0.280185468420804,-0.433243803151216,-0.050407644609508,8.93952431295227,-0.513654243753563,-2.84581852963341,0.208173236224184,0.147755080310689,-0.0946039479740313,9.60166940968529,1.09445814819253,-0.0636107671983552,WALK
0.92,-0.61667671696761,0.218870805906814,-0.209631358727298,8.10574383102292,-0.194955874446853,-1.8743111505848,-0.24644467373149,-0.438446620451072,-0.090398117120033,8.98514724728799,-0.66978268929934,-3.17592831222276,0.227302903330909,0.154385979859431,-0.0974164192597023,9.49840446905293,1.24741146225553,0.0483344836982256,WALK
0.93,-0.539176587407951,0.144067613905999,-0.20165764764924,8.17014315645872,-0.147096213097034,-1.43000611081426,-0.192993104115899,-0.423135886198224,-0.127908163983646,9.36624789948729,-1.00949523572893,-3.57161742268358,0.23212085549624,0.13829411224192,-0.0974188080314357,9.47347671674355,1.43572861938917,0.141583328778005,WALK
0.94,-0.536758122671571,0.0573006267900582,-0.189757266265158,8.0340106660014,-0.241308036688441,-0.981821042788793,-0.148740504623709,-0.370153450581726,-0.134032454168258,9.74097123311954,-1.02175107188923,-3.96701152178231,0.23111215515985,0.11549838277645,-0.0897090245031395,9.35351410711598,1.57742489506341,0.153456121738217,WALK
0.95,-0.595358920136082,-0.0470968664065364,-0.155427903364426,7.88960019659234,-0.827965213781247,-0.709192847297244,-0.123948200805325,-0.33680237417505,-0.129705238460513,9.92355310551954,-1.17992618915477,-3.97046777394916,0.208826881801132,0.0892984568176953,-0.0747316841129,9.24466025224811,1.59701793360206,0.1754940178233,WALK
0.96,-0.641704579181842,-0.134580228969526,-0.103770002425164,7.76974146930774,-1.62957842269705,-0.521723602106092,-0.127863583197061,-0.327238359367418,-0.121910434192972,9.91007229728101,-1.26011329266548,-3.36683355216505,0.183797738908188,0.0439330600120693,-0.0557211544463786,9.1557022001133,1.67239613752168,-0.0153938880099283,WALK
0.97,-0.613999019900095,-0.182908169624583,-0.0402123844557393,7.74421737615061,-2.19411384937122,-0.494647481454947,-0.0782177617224341,-0.370491001265862,-0.11383766758008,9.58524209235685,-1.0417133667914,-2.73195532607709,0.160481813788714,0.0011595137255562,-0.0404182861233194,9.09483204226856,1.64806002861,-0.177351803854959,WALK
0.98,-0.525895698172279,-0.194208741360254,0.0073705366752671,7.78477063425813,-2.21920126592308,-0.449633349012312,-0.0102071186392941,-0.406229600103595,-0.12118165422984,9.31470054327116,-0.682718801591818,-2.28489954400892,0.141456508462429,-0.033941931716436,-0.0136124036221116,9.01728790404478,1.67707826670742,-0.272116016738131,WALK
0.99,-0.406946153961338,-0.184903841411128,0.0073831660276723,7.96917768625929,-2.00380637103826,-0.0952535377396149,-0.0051309693136929,-0.425638159750029,-0.147719926613721,9.30442755908885,-0.41358642696163,-2.26063387426896,0.118323455731665,-0.068370635802175,-0.0057774608467951,8.95631398353486,1.72780983347174,-0.350479236228344,WALK
1,-0.253689240252306,-0.188459303759926,-0.0412401898102062,8.41104962512657,-1.54887625878501,0.514719634801722,0.0000333526119373,-0.423366535385401,-0.191967102069899,9.48379551451338,-0.357727344384463,-2.35356100789597,0.114651684704704,-0.100511175700714,0.0018196739642932,9.03557568894614,1.81325004892344,-0.409221155655848,WALK
1.01,-0.0723076141644796,-0.205330475791495,-0.133834766420966,8.94069546615132,-0.748479301479053,1.26194025858939,-0.0211772471494307,-0.405435034397139,-0.223988221876763,9.87384871191845,-0.519828287900966,-2.38634515619172,0.118993201314191,-0.116037936192251,0.0063513490445238,9.00494509659207,1.83724382757674,-0.269777657197698,WALK
1.02,0.0730573451259394,-0.206594072088751,-0.246919898885378,9.85255247053886,0.22030367209,2.08516838156934,-0.0237602013191345,-0.378189505543619,-0.243264279618929,9.9886025800999,-0.514615977081865,-2.43076805860312,0.112570017630434,-0.13433291065391,0.0084291897836907,9.07809657223396,1.8465108411293,-0.171847168537082,WALK
1.03,0.170122199197786,-0.187988693168313,-0.382559630576364,10.4678583711619,1.10198329064086,2.89940579251211,-0.0215201020480792,-0.376650227718282,-0.251828360372196,10.0920714947166,-0.357238878953455,-2.27344683924555,0.105392255197148,-0.160145611851945,0.0123854306432197,9.1767632684987,1.81664854240264,-0.174794432258369,WALK
1.04,0.288437602232491,-0.172644898635935,-0.489581886682386,10.7405326464141,1.42070174745887,3.32640632821912,-0.0536303763982789,-0.364417075465764,-0.247170409573446,10.0781630583966,-0.0715188772734468,-2.22363524520112,0.106641474643799,-0.182300823974214,0.0211552743355479,9.31201215180966,1.70623136659102,-0.175364097995025,WALK
1.05,0.458457478325134,-0.208691109383384,-0.517400847293248,10.5532421621717,1.53432680385435,3.30535907257661,-0.0933972087954061,-0.373681636510993,-0.245922067773323,9.86486842358717,0.189174091812041,-2.19464935952912,0.10165439939217,-0.218920075505986,0.0373325987089311,9.40655322036959,1.5912968688563,-0.296459881749053,WALK
1.06,0.603260966298635,-0.292805285614357,-0.457072784087078,10.0484222371594,1.89530314982829,3.17207009739879,-0.1471707669757,-0.363871414422863,-0.247831095796249,9.84854473476253,0.393741362564781,-2.20627246396007,0.0962525114815308,-0.247053588874448,0.0584559592422802,9.52145156543032,1.47164604421169,-0.498924557621631,WALK
1.07,0.622493463593729,-0.354983017764622,-0.376593282697756,9.99573602733245,2.06168964151341,2.99312738587186,-0.130142460950147,-0.342959714037958,-0.262122116634549,9.84792340279415,0.384943273557801,-2.33375429339172,0.103714593929324,-0.276060934233364,0.0856453996361103,9.54421579265123,1.30448319760235,-0.757257529067831,WALK
1.08,0.56469891661889,-0.380924567343232,-0.328317581383893,10.0405771602982,1.90435893301865,2.61456185690335,-0.136431151905137,-0.310395350262814,-0.268841374375176,9.78146290705241,0.292848558605244,-2.40549493090739,0.130762997355568,-0.287959802366551,0.114469860868385,9.44260431076766,1.21279842114543,-1.00664541138367,WALK
1.09,0.47969572162299,-0.376487009064413,-0.301318805119904,9.73986492914799,1.22347031129432,2.05137922458694,-0.161595471343961,-0.286211777085968,-0.270726552020154,9.57601958057,0.181984950705978,-2.36367291585377,0.160107910147842,-0.29967022750907,0.152179232812773,9.29169627843303,1.15680415181389,-1.10320901781419,WALK
1.1,0.44926770355722,-0.329414725038503,-0.28992601860952,9.29620291322217,0.595796524194796,1.18705575605607,-0.171945640236017,-0.28053579649033,-0.277056280476493,9.49946612980637,-0.0600815633424174,-2.46204942525618,0.180004669979937,-0.312709429165329,0.182791772501601,9.10048462303779,1.16425259366569,-1.15216036451754,WALK
1.11,0.431743083547649,-0.329816530558907,-0.257393719860299,8.95411374915055,-0.199761642081371,0.822504851335266,-0.195342201226005,-0.254226299485801,-0.27669214954343,9.51841629455792,-0.197657786605592,-2.636683470784,0.18160154134761,-0.330400143756469,0.203894931232577,8.98580483525521,1.28118664423376,-1.15682879941913,WALK
1.12,0.39634837920172,-0.317984146120474,-0.228323100419345,8.68584821036042,-0.86322569170241,0.588487348918124,-0.181181701919066,-0.223881384076373,-0.283074733490969,9.6122900209412,-0.53867918092067,-2.35547155825273,0.17776804261843,-0.346689791786022,0.223052559131256,8.91210030506137,1.4803242093171,-1.30833052865451,WALK
1.13,0.430734682978292,-0.347702138071567,-0.216299316493482,8.40348639676722,-0.899886346840137,-0.0109689061184441,-0.171443754922763,-0.184409402941214,-0.285892272553538,9.77235321114744,-0.682939511013762,-2.016067058933,0.162062422498489,-0.340825998326833,0.225058115534081,9.07187398831444,1.72453617699436,-1.18628339325322,WALK
1.14,0.548141018267648,-0.472061662660811,-0.173960013265874,8.59381091756885,-0.523953631220661,-1.3678137420429,-0.131259591275447,-0.106235653353742,-0.286016877007108,9.87948136910024,-0.949684953944061,-1.71236683510541,0.110794374355754,-0.325584987246595,0.205019112966062,9.36842123615961,1.89532236713654,-0.70306228129193,WALK
1.15,0.78260243422215,-0.512128507791799,-0.107680483029145,9.78604649688918,-0.472601258007097,-2.80674161679247,-0.125700370410138,-0.0285744734244309,-0.287947875134334,10.0797510590574,-1.40577821882471,-1.69141605460482,0.0145114855701496,-0.3243863110754,0.150270132048263,10.0444823953031,1.90777138195672,-0.373384108505112,WALK
1.16,0.943853928480846,-0.618192237233616,-0.0125877885058403,11.7112423768076,-1.22116469512581,-2.95156700020626,-0.151371774404972,0.0583597617250605,-0.286609197286465,10.5751761129214,-1.74981368941755,-1.96792022235525,-0.0587831229410068,-0.338573863577517,0.0670446464932476,11.0709977795333,1.75053278028481,-0.0937718224638143,WALK
1.17,1.02012662113487,-0.698175240855747,-0.0267558934483332,14.036963920245,-0.347209571149365,-1.95295748146153,-0.138625516435335,0.177121382758342,-0.283804411715486,11.330582477142,-1.7225042980987,-2.24980220641195,-0.136389191259377,-0.334211891332087,-0.0573299000125389,12.0130473912368,1.39362654828,0.405004490727764,WALK
1.18,0.933182003573156,-0.612777594429497,-0.141944668764309,14.7439992329317,1.67514169326491,1.09713530793099,-0.0582020257042812,0.334794406669553,-0.266284233613583,11.9899087876908,-1.49729330148652,-2.15001398706742,-0.153357833323096,-0.322114946072377,-0.196458388937506,12.5897974231519,1.116841076331,0.412668224679939,WALK
1.19,0.676463640436092,-0.66135893479221,-0.235462735991785,13.1550343399015,2.90968740002728,3.04118615608496,0.0771987343344671,0.526636103120851,-0.235346282614522,12.2618146723074,-1.22110721965018,-1.62754207191073,-0.0720246091942583,-0.28286489955431,-0.319440054277658,12.6701658233334,0.817305982286542,0.431823349615044,WALK
1.2,0.523892977509764,-0.847566623401212,-0.210998699004291,11.3684725897164,1.48653436379807,1.47758290542837,0.222107048149694,0.73395478874958,-0.195637962435117,12.1002581041514,-0.687466083871142,-0.836020046052219,0.0535989398146373,-0.231208968704582,-0.39542812417186,12.1654716240585,0.53842729382135,0.658477475486998,WALK
1.21,0.593131585186942,-0.948906276541073,-0.114745525679059,8.99241492630488,-1.44489567059488,-1.79750407435878,0.346651069403804,0.950583157364685,-0.165957868193005,11.7262657002399,0.0023810300328944,-0.0918520134765444,0.140296093161637,-0.208868579525545,-0.406134539188171,11.2444852045013,0.351166616959768,0.819592522373561,WALK
1.22,0.717270642821735,-1.01963168793488,-0.0141749321756429,7.41900571419882,-2.58982224402072,-3.40647126043481,0.436813071314662,1.13591451356375,-0.165729533155652,11.3932550719099,0.957404985976651,0.416221981397609,0.189076791060914,-0.208300751364534,-0.373915897081471,10.2263958897016,0.552449741641417,0.720736042430262,WALK
1.23,0.779485459775066,-1.077306009254,0.0837170267797098,7.07446110023244,-1.61704068140898,-2.90735279665961,0.470155691940282,1.33032864691457,-0.204678241803576,12.1443658933785,1.72127364031031,0.946468982940987,0.158337008770871,-0.218310407881131,-0.30532153391396,9.39991615518717,1.20790058727109,0.712005301968637,WALK
1.24,0.864538257210745,-1.03750803853127,0.136795418905264,7.20102674880494,0.203728789886639,-3.3219869125854,0.457671293287029,1.63468240407238,-0.239948512819097,12.7143359069473,2.4612209132165,1.2982536234235,0.113839511410963,-0.235970675721904,-0.22907114031569,9.21669649601245,2.10632305114636,0.391027849209785,WALK
1.25,0.902229464071286,-0.977510462791373,0.117608994419768,7.64719101346804,1.45152354707711,-4.28655772858838,0.487496316986473,2.06054505693302,-0.264306645740041,12.3732517293353,2.89136975067385,2.0868235898736,0.101027128413131,-0.214614553440213,-0.128254403781254,9.48412609515439,2.79268326430204,0.30161406094915,WALK
1.26,0.835339822303662,-0.960334833241492,0.0316133154103011,8.47134248432756,2.41736390570303,-4.23901796050048,0.530067958788669,2.43073124553213,-0.357956055834272,11.8283395537544,3.29910704107833,2.49865425185517,0.0596799736950562,-0.170511357265155,-0.0285480803471033,9.72521735394263,3.11176061883343,0.631903777039712,WALK
1.27,0.562177841302391,-0.996938110055713,-0.0136751763776934,9.52446638096885,3.35407468502942,-3.45497196775885,0.374481024502618,2.67419836428509,-0.44483770317265,11.1825192660878,2.86117441883858,0.973781309637499,-0.0361477667521441,-0.133198886667011,0.044052851214278,9.67547070192888,2.94355326750486,1.03578219260003,WALK
1.28,0.328354895725062,-0.995989470524449,-0.0181619466786977,9.78969272908078,3.0760133972786,-3.20799200809298,0.0475658617653837,2.80462866417439,-0.471732210888809,11.6861215150964,2.1023380557167,-0.502320193795473,-0.154533217868995,-0.0776266407856798,0.0703950921327254,9.38376598150201,2.30464050348788,1.17190890340883,WALK
1.29,0.16882879317344,-1.03777781579002,0.0350926638386739,9.57461339658729,2.53283302490648,-3.1918547506128,-0.354669781526366,2.77450573934786,-0.348949323128172,11.7694133997026,1.66981580671361,-1.44156236513951,-0.2770442763586,0.0035754450892849,0.0514551717525625,9.16381686049499,1.41549514645045,1.51483499589198,WALK
1.3,0.0256653782197914,-0.985879840937097,0.0969242321409403,9.34520321689064,1.40076325405183,-2.92105153725382,-0.755977820311437,2.66715961666133,-0.18161985542542,12.5880494438902,1.43083260612727,-2.96548550314324,-0.37383823734918,0.0938435852437776,0.0056105025357834,9.1788594828487,0.557378278715762,1.75141046412206,WALK
1.31,-0.0489107058127803,-0.90066266818016,0.155162772340622,9.18510293595167,0.0900772398198739,-2.63486321590757,-0.678002411001745,2.79556680670025,0.0597926684577947,12.9642474300175,0.67498963459677,-3.25944661683255,-0.458651747645662,0.16032371757208,-0.0407804789308932,9.37332570090334,-0.239049950969203,1.76100067899967,WALK
1.32,-0.0533818584537737,-0.853819507715785,0.210002931490471,9.25694320550177,-0.599879664584159,-2.43230963305211,-0.479819321719794,2.89185599383815,0.311879101922578,12.9921907332239,-0.459640898228019,-3.15743448607263,-0.505903651448017,0.204589344692876,-0.0903522036232637,9.67111111706565,-0.851613002310606,1.69415297088846,WALK
1.33,-0.0451048180465379,-0.843882756663889,0.259062782039955,9.74452888627049,0.236582395543201,-2.5423130684488,-0.424358089324438,2.91257787151295,0.591273542615241,12.9751055036209,-0.983025592952925,-3.29606968382296,-0.520565438903617,0.223661938829164,-0.142466976771713,9.76789016428892,-1.19899974066939,1.71106030881199,WALK
1.34,-0.061181428571643,-0.848735713932259,0.281173828704972,10.0773395661373,1.42096269351201,-2.14917337540259,-0.624566263674491,2.75735180493047,0.826403055829371,12.9477331693436,-1.87224383167374,-4.33571697948752,-0.49090914193818,0.22128765045143,-0.184053578541392,9.84839232449341,-1.08786248459115,1.64391119069623,WALK
1.35,-0.0792650002101736,-0.849730717019814,0.284932901274541,10.3162183136034,2.19948916780639,-2.35735623515381,-0.792385687230178,2.60932724955321,1.01082026864204,12.6808870722402,-2.82611716472941,-5.73349081357577,-0.386522897663555,0.179521940946115,-0.208466807992748,9.94140503795736,-0.729870726176065,1.41675699440533,WALK
1.36,-0.094173147291577,-0.814612627196425,0.284263293747571,10.1115262887812,2.51085721778366,-2.5668173262464,-0.703075906575893,2.45646841277214,1.02158182391173,11.802827040877,-2.49872236292798,-6.9378510901995,-0.244632522449813,0.1282127828103,-0.201724170363264,10.1136095622702,-0.29148105324074,1.212276450287,WALK
1.37,-0.145989175987045,-0.779784498766949,0.282063084653263,9.76391091735584,2.02588889614965,-2.37724109795847,-0.380975957024048,2.31814211543969,0.951547953124212,11.3781619536017,-2.01010532946534,-7.80420507554963,-0.129209380622555,0.0654657809238022,-0.180382376004767,10.1412531437486,0.0817899020423454,1.09524198973525,WALK
1.38,-0.164091338447414,-0.75092080332267,0.269531216873646,9.63999822861559,1.32832740485813,-2.35650513642515,-0.0149123376393982,2.38811676831279,0.881916445706138,11.019425137161,-0.902601822019782,-7.45921576903346,-0.030785034198561,-0.001923671781947,-0.151526733436485,10.1294363500866,0.313675711698428,0.897868526308927,WALK
1.39,-0.0995644394126549,-0.721286232033463,0.253053109030117,9.54203201790412,0.699552978088978,-2.206540947963,0.340035081108525,2.4573446284468,0.797777396563088,10.1124024503504,-0.752809450567905,-6.52631610479215,0.0321878132603125,-0.0501135034116624,-0.0941871890234518,10.0083945815716,0.431540466938463,0.807742434840842,WALK
1.4,0.0125101666278269,-0.701368829181875,0.237552917110565,9.61555507233014,0.171989705542923,-1.98833259140062,0.689863773150807,2.37814022767255,0.658590004123118,9.01069652239045,-0.699679333118235,-5.28890263652844,0.075586620770432,-0.0799549536778757,-0.0311193704109749,9.94809736812478,0.466350048925874,0.659640840093931,WALK
1.41,0.153161971179003,-0.693909325037859,0.224899430704781,9.71375824569518,-0.279616921881611,-2.0807355493911,0.972989998335241,2.14605495723622,0.497957167648475,8.82079251661031,-0.408428770947241,-3.83112032734994,0.105979104706504,-0.0953349902856596,0.0397082728827491,10.0053862036317,0.400960543974217,0.520397454048518,WALK
1.42,0.300607496821129,-0.677255349605111,0.20899775282461,9.59327266576319,-0.341110458729068,-2.38488098136375,1.08618598399986,1.86997959757532,0.371142739919508,9.22451810748644,-0.193407530204147,-2.6250670793297,0.122578578950587,-0.103767000552804,0.107796919527327,10.2138945910431,0.372465323190583,0.441653507803837,WALK
1.43,0.415518950000965,-0.687777294468403,0.196774739964996,9.51801343815576,-0.124971650379261,-2.40492939890696,1.08602972920136,1.65410437982009,0.320687969729673,9.73569120406024,-0.0915802373885807,-2.02835435261584,0.13943397185631,-0.106986271566865,0.159626660371143,10.3558906985898,0.306888403692681,0.431015767940415,WALK
1.44,0.492431133675764,-0.672034151572391,0.157151527040331,9.70653951823098,0.0088064878920415,-2.66939380911753,1.08066780455088,1.55193233191475,0.314519473467989,9.96008098779757,0.0365401337281682,-2.3227177242746,0.139041388424812,-0.103956081893592,0.191055069180278,10.4459276785204,0.346263916604706,0.392365790099281,WALK
1.45,0.562309721838265,-0.631683006415035,0.119389618736251,9.63754120482241,0.259596750075392,-2.83467720058395,1.07131550896278,1.44267577946784,0.344535812952129,10.0890322005625,0.183653637154162,-2.83972882096535,0.154844119243044,-0.0965891332084901,0.208181589845197,10.4059219034812,0.441902754103599,0.40069912254954,WALK
1.46,0.622180422926171,-0.593500308254819,0.103281904389142,9.47450840748505,0.543715766072089,-3.01024463671326,1.08134855134653,1.33301780019429,0.353148790987682,9.53013914888012,0.127159280029044,-2.86522063221481,0.155156037478647,-0.0998976665232846,0.222129888331493,10.2419333382643,0.497461251425454,0.316073842734905,WALK
1.47,0.644948936255795,-0.545129788480782,0.0922576383988732,9.52026824990858,0.641970875687255,-3.20661938858576,1.05078868708319,1.16565154323647,0.371917186125385,8.61244833958513,0.524987181935755,-2.62377178414919,0.136471396043734,-0.0811504764185638,0.222179699796733,10.0213506981485,0.504128406171264,0.251781857092644,WALK
1.48,0.690910656759058,-0.464998192123134,0.0617544134819816,9.60160359641934,0.383611765825997,-3.3876738978989,1.07007981515939,1.03562124066904,0.361318878889733,7.51670012837023,0.506034218214861,-2.54996248701732,0.111225940098989,-0.0556503641841366,0.214256476030887,9.84948475588803,0.528961466528106,0.252451454613967,WALK
1.49,0.690572419598824,-0.420461195540487,0.0663578089088825,9.16530309583757,0.426153493492173,-3.39596225065833,1.22420678880857,0.907794400932164,0.319536920738801,6.90754877142201,0.472393739365156,-2.87313478351789,0.0815238968961625,-0.0213176215913853,0.20246895302366,9.59271441405606,0.40083413560413,0.144992084283349,WALK
1.5,0.60965945061044,-0.447282324059774,0.11236432432547,8.71723421188219,1.03358944991889,-3.72622845145609,1.4029993597298,0.759224227981663,0.291917036430197,6.58907055758457,0.540341902388806,-2.83037418812433,0.0432704922102296,0.0441301865224341,0.171439740677744,9.37592972761417,0.32590449546022,0.102402242304818,WALK
1.51,0.471604010540682,-0.459845171084435,0.13356117080541,8.70863404145471,1.86395944892069,-3.71555865612494,1.47209679050945,0.649895393443412,0.248651869642995,6.54023550878877,1.0117233890972,-2.73037370439991,0.0108816824267679,0.0980802811575666,0.131903262310735,9.33007600334467,0.334630328367452,0.0912400149641119,WALK
1.52,0.370018996516137,-0.456607794093911,0.133321767504145,8.42049565756461,2.37197289162943,-3.71637124770304,1.54862091249108,0.593331241146776,0.174032824779873,6.73902406124677,1.35353527852005,-2.8209656559801,0.008675867142302,0.130839755743353,0.0904699230274512,9.212100598148,0.380102972843197,0.0455916758267457,WALK
1.53,0.230746711252341,-0.476169271426568,0.149774360692352,8.23151076885281,2.09586505900782,-3.93589605522867,1.57873486227535,0.533589244030761,0.0925347757253182,7.02614194814111,1.75521971589114,-2.58893979586344,-0.0215417960554251,0.14923357076602,0.0632306110821843,9.15544162917954,0.389702221302013,-0.0065643173226372,WALK
1.54,0.0531114842765606,-0.479491336820348,0.195769246589478,8.22836674551158,1.75449577291603,-4.13117433060667,1.50128860853812,0.462462951847395,0.0343823652514956,7.29301096030083,2.0271961878297,-2.32932510615064,-0.0255266647505161,0.175539244581754,0.0429736505039605,9.16764395964606,0.444224807383792,-0.178882557036067,WALK
1.55,-0.0896422134462361,-0.48025850460431,0.231172559088114,8.30925481582584,1.40344607688328,-3.88587221806526,1.35253237262067,0.431086300005205,0.0207576842968653,7.49496481627219,2.35898111475527,-1.90832653345792,-0.0480332379107472,0.21529340030554,0.0367068927718555,9.10091794403751,0.412037325981801,-0.0915622394598309,WALK
1.56,-0.192562747315795,-0.471040536591993,0.255313163484637,8.70834010512943,0.815069864893208,-3.98266464062808,1.16358918278409,0.468051277865978,0.0275666335291151,7.43404300686523,2.59452835218583,-1.33722749599163,-0.0748397761366637,0.251025829825264,0.034638077569112,9.07893496823671,0.407837772771784,-0.0146179481990844,WALK
1.57,-0.234917113368757,-0.4668303545635,0.268158703910792,8.95872645498264,0.369910591826187,-3.98097850654122,0.920641372428956,0.484014338270007,0.0557889658164749,7.23791253266096,2.95611163301812,-0.872667728558832,-0.109035906487278,0.26917054306073,0.0394606245943733,9.17246432255287,0.448639981601267,0.0588098444699339,WALK
1.58,-0.230817630688677,-0.482184853511231,0.284072844439301,9.1650700396574,0.158334398903596,-3.62367362173143,0.559239934834328,0.441250568988354,0.105933071713423,7.06837446332738,2.92465803491307,-0.446356400632763,-0.127560711219495,0.285134518301836,0.0329259780019561,9.29932586926106,0.394979807636128,-0.0366887315381327,WALK
1.59,-0.244145336479068,-0.496803078797606,0.28505141292484,9.20670752703723,-0.183823772668246,-3.04130986589675,0.137478649363086,0.334341375589953,0.16990782690188,7.03620918167629,2.43193738094643,-0.0928236330207582,-0.140063916457433,0.314406311708238,0.017854060569551,9.38151636330804,0.314909096765487,-0.116297797083504,WALK
1.6,-0.218348740599905,-0.518787913507468,0.292480655323211,9.22968312569233,-0.48974381518111,-2.65876600613685,-0.222915198646393,0.191457944992627,0.245797209876128,6.98036258654481,1.88450405765789,0.0091891339132425,-0.143916670313484,0.340516386290409,-0.0168408910839018,9.45661984904077,0.1943312952619,-0.0351614831241476,WALK
1.61,-0.132711098053215,-0.531416553878239,0.310493018747745,9.34000250586139,-0.454876063234024,-2.43103318615047,-0.409314847931075,0.0299623549557351,0.336905682954055,7.02707985172404,1.47540970332719,0.176613035755707,-0.133838859290938,0.355248568718983,-0.0583957249357053,9.48235494451026,0.136890353705748,0.0505987934467808,WALK
1.62,-0.0533166627240153,-0.533375478817333,0.315066696172952,9.45245080108221,-0.187338686213092,-2.13719357019511,-0.433158796620278,-0.118646521604959,0.400342251567669,7.2045654188823,1.17126647326612,0.411512207157621,-0.127864450528361,0.345140076820582,-0.100712723851212,9.46191721758586,0.106490066068077,0.117804683281559,WALK
1.63,-0.0033789136779108,-0.536996001324789,0.32225458839737,9.63382154660956,0.251037241009483,-2.00531208024927,-0.360413745280933,-0.269874891770658,0.443967176542899,7.39850740048244,0.763330782761599,0.440583328806795,-0.105804869424416,0.324054134143399,-0.126403265529901,9.50363479764417,0.130292950590182,0.189755544205997,WALK
1.64,0.0445684283709373,-0.511577841338027,0.314978607786232,9.81704393687163,0.643874003631216,-1.90752358812029,-0.230468787081057,-0.425757796488047,0.451455365214792,7.65750289715267,0.108175895719463,0.237377808574451,-0.100275498799162,0.290676982850893,-0.140667409555613,9.44209239164551,0.183054769334268,0.47642774490955,WALK
1.65,0.0812295253470081,-0.477147392497827,0.300134116586817,9.74509735166342,1.12325252662598,-2.09742550097562,-0.0998716593287263,-0.57246805649415,0.434989355097921,7.99569673803751,-0.507080406136634,-0.169807157521424,-0.106677197514864,0.230586293883106,-0.138178897393343,9.38517034705157,0.12276281737579,0.420531019380992,WALK
1.66,0.101917179235506,-0.452476865352332,0.285047616061035,9.78540544999225,1.47580764387436,-2.34534061531878,-0.0541857894212135,-0.691551619441297,0.409925007549151,8.47302957587723,-1.08790180444824,-0.35852408647698,-0.0874043541502269,0.163874646581719,-0.128161283689303,9.27721904474314,0.196096894681998,0.176760591044195,WALK
1.67,0.0997220772829569,-0.426209713179403,0.268970472755155,9.85368064909874,1.62036215457136,-2.70037572387212,-0.0958792953369516,-0.742390333844553,0.376543066434665,8.88162768974063,-1.42458439364068,-0.096809370949532,-0.0422696838947308,0.106769880214771,-0.105206732010654,9.20231523500222,0.236501000441796,-0.125324743353001,WALK
1.68,0.0992953584641168,-0.405093581764447,0.240189325515594,9.70364188896845,1.39881434693567,-2.54189923462314,-0.211385938688065,-0.791706460420708,0.323084352926168,9.02931267681556,-1.35382697569525,0.385855445940673,0.0102298076720069,0.0575643392092071,-0.0846379123424133,9.21259285820495,0.28963816915073,-0.275027449986673,WALK
1.69,0.0874732596320762,-0.40461113363569,0.227510520232212,9.40935000019929,1.04769400874476,-2.36781005602348,-0.354993258372751,-0.897697260945225,0.263367860632657,9.13111266496605,-0.97759766406244,1.11905496557115,0.0517960311877012,0.0041655662566098,-0.0572492785828265,9.28373455953552,0.31362019232981,-0.512680777940901,WALK
1.7,0.131963138850765,-0.406000836136898,0.224676925743622,9.35337211082258,0.806037061516271,-2.54830278754931,-0.428912758513118,-1.0626289373098,0.185662564078427,9.26245503804161,-0.640282568006949,2.0398369092765,0.0772768355006034,-0.0401871164887613,-0.0170074740147136,9.42059699562829,0.349388497616504,-0.769083077649665,WALK
1.71,0.214540524173568,-0.405191219850698,0.23420638654921,9.38056664116204,0.610729912787062,-2.78699120310224,-0.42814124901407,-1.24724954191928,0.109717041870871,9.46696567981251,-0.442919623433467,2.84252909034661,0.101902616949841,-0.0767278417122179,0.0192691637986864,9.55487279110988,0.444799581459495,-0.886834836094863,WALK
1.72,0.274203804999365,-0.405337466195282,0.238051298764685,9.41613211702554,0.280999721148561,-2.72346878158819,-0.405735578174865,-1.43739518690676,0.0557629886913462,9.62667609144002,-0.26205603767501,3.33451400285065,0.097682971225491,-0.110237229069521,0.0484620503811529,9.61894513982944,0.467590244590795,-0.98673686145864,WALK
1.73,0.295138639119959,-0.390160687600476,0.240189873207287,9.3488889686462,-0.0462100625738577,-2.59134102016799,-0.403101824434265,-1.58213422319862,0.0261304385811707,9.91563931034217,0.0364855522740992,3.28005339796539,0.0825501425363318,-0.125706626603779,0.0679163517750165,9.65662845798156,0.459978171965655,-0.905536045607197,WALK
1.74,0.302533941259232,-0.371000341548271,0.243680075653665,9.24807017595416,-0.0333821925169488,-2.65173980894366,-0.345204900326709,-1.50998309356604,-0.0080410993440431,10.5363586362971,0.530253073434634,2.80683560624025,0.0630899856845059,-0.126837437918302,0.0695369217773002,9.74672029336841,0.457795581557394,-0.910971198096982,WALK
1.75,0.318346020239878,-0.343245343546211,0.246555530707544,9.17841511460777,0.177128106748562,-3.17174854266465,-0.159159845198607,-1.19757299428216,-0.0056956050856423,10.7016496632715,0.883413267751287,2.55129562560227,0.0477348211530162,-0.129110239909622,0.0585376536022732,9.68002155129518,0.436002683535711,-0.909192060863436,WALK
1.76,0.349658170919782,-0.32014397227045,0.234096526971949,9.0583332377033,0.572152255352925,-3.56631946695751,0.0069021430863212,-0.964600503913366,0.0312978203307034,10.505263145869,0.89791740505551,2.48910483279897,0.0298083147890138,-0.124518283343968,0.0403596859124634,9.61732568689529,0.328513184137649,-0.89687575323799,WALK
1.77,0.336354395411914,-0.303128815985372,0.207488087872386,9.27106324359527,0.656640080465208,-3.1430023325794,0.176120840386532,-0.822363690291456,0.0618561344362101,10.4284399176506,1.21431227448228,2.32216912988003,0.0091060210140599,-0.101805084061106,0.0140099534677162,9.50225249564288,0.268287883869695,-0.828305766810635,WALK
1.78,0.292307172920381,-0.280372395871008,0.198867948352174,9.38167704524269,0.547151269488655,-2.78029246148266,0.329243001828973,-0.697234256620082,0.0933222711019926,10.0237356223787,1.41212372490517,2.30266744983502,-0.0145372772978083,-0.0774240252229678,-0.0156479398520444,9.50409126974779,0.155042006748932,-0.697772573650194,WALK
1.79,0.280028076477868,-0.262164086384323,0.19536689781485,9.24849873624721,0.67470168695237,-2.69463055202705,0.424483841419492,-0.682790880868686,0.125391546494672,9.51861721809268,1.41760807377614,2.23981752258724,-0.0294983695271911,-0.0535106794963031,-0.0482026300408395,9.47643095901928,0.0518567775038001,-0.610103591480047,WALK
1.8,0.300479746020151,-0.23771289701465,0.194670922274579,9.381244192677,0.712736325312733,-2.80096712049793,0.337016093366929,-0.76318496573912,0.134301753790238,9.166479968172,1.33985090402416,1.6638303056218,-0.0216355635286819,-0.0416792960758853,-0.080350397906801,9.4473790396198,-0.0367667928466599,-0.597075205464554,WALK
1.81,0.305227682826643,-0.200893876680164,0.189800125569075,9.60849115483617,0.859265013874117,-2.90957725744905,0.0168817637319368,-0.837152529382279,0.117016269689415,9.4868885881919,1.21029308961048,0.756306193063676,-0.020808379033189,-0.0298812497239013,-0.0972572801199645,9.45019770090807,-0.141687009351913,-0.461503570401708,WALK
1.82,0.295780808683631,-0.153139177746692,0.177602407188488,9.79849558017376,1.0930221775151,-2.8832228135137,-0.429687425069852,-0.983231565478398,0.03222666263621,10.2644932627875,1.23284984522335,-0.653656168821116,-0.0446707871285174,0.003842629895412,-0.0983501356108772,9.74404049655744,-0.140723416269231,0.107222068176205,WALK
1.83,0.28503385594661,-0.104864834695302,0.159187969595603,9.90019021637084,1.35792814209739,-2.95406434203592,-0.853197850734392,-1.32207347600553,-0.0627900799075118,11.4209302462294,0.90445000587119,-1.04993251424918,-0.0917977638013032,-0.0274534114498442,-0.0793829096631606,10.4372780059,0.0309933397051278,0.450717240485299,WALK
1.84,0.278063613867662,-0.0649964938023381,0.146368101397216,10.4161944768222,1.58843825803382,-2.92938571645004,-1.19999016001686,-1.56451551211072,-0.0831346386741922,13.3843749450409,-1.16197914827213,-0.524317114245288,-0.0676143318383531,-0.150747957358733,-0.0060505686904828,11.4225366808591,0.496101369708147,0.214925953285353,WALK
1.85,0.247573001039643,-0.0101509844695034,0.147746517948995,11.1198733907027,1.81309856038843,-2.54667172130579,-1.12984172891745,-1.36506380760899,0.0009737556049037,16.8648191188743,-4.97844116791172,0.903071399041106,-0.0068745098671741,-0.191852798836073,0.117978403358353,12.0090516784781,1.00985750815045,0.190092464499,WALK
1.86,0.165326145890559,0.0674838692415154,0.153926363540088,11.8039821300565,1.99129760918103,-1.7696075667287,-0.478522029783456,-0.768742255587715,0.205084939803668,19.2297819181263,-6.7881352493862,3.16886147589991,0.0214184371382043,-0.156323440628653,0.252551883985615,12.2149661345753,1.44760275877386,0.648382189339774,WALK
1.87,0.0866761758854992,0.177276975080332,0.132928586778717,12.2855512722243,2.13943131105003,-1.0199601638988,0.202696649150764,-0.454001629225545,0.316948925836199,15.9955347606135,-3.23942966300914,4.2319495071579,-0.0348459123228029,-0.119397688354286,0.374892333758713,12.3973455991702,1.77369490727596,1.12813065683271,WALK
1.88,0.0654395346127102,0.307064446624357,0.10217307975154,12.5012478547565,1.73531862678152,-0.606778629875887,0.388953003106248,-0.52821052408258,0.257650077926679,11.4530166377844,1.32942703717724,2.47765098727753,-0.157927368830904,-0.105474034395459,0.455380055667117,12.1160767237075,1.95135332759789,1.57403827592569,WALK
1.89,0.0402994783852935,0.457791576086463,0.0618460689786837,12.5971482326433,0.773665228065399,-0.494787139221768,0.321559086626133,-0.679880786849821,0.0856165576924539,8.11378219351772,3.15553323311546,0.481308140065186,-0.282940317847468,-0.126308238117182,0.479486358363719,11.3423057682065,1.85018212134058,1.5805194865122,WALK
1.9,-0.039899237842749,0.627357468919209,0.0226896821166656,12.4859705744739,-0.203010923452252,-0.303775557277128,0.0969886521414202,-0.731030129248378,-0.13011597927397,7.28790666936472,3.16033559911898,-0.352983645445184,-0.353896014604624,-0.137026302152762,0.420236453759191,10.5802172231518,1.46097433267439,1.36860956204868,WALK
1.91,-0.142503699779691,0.802341891090435,-0.0199668833491212,12.4526834668144,-0.962679738541434,0.0858638633778415,-0.225574482972915,-0.628088694260003,-0.193365847424366,7.42378764411843,2.7636255428019,-0.236472940246947,-0.361858555210225,-0.159643263178477,0.314634192856989,9.88759983994085,0.917985070803464,1.00766826924599,WALK
1.92,-0.195336574086752,0.94092069496669,-0.0433323957625264,12.3244355437059,-1.53000468689222,0.507073483085561,-0.414116715114212,-0.491956880659687,-0.0609851589215594,7.55928161678028,2.48133289621592,-1.42163788547903,-0.340971644397441,-0.171942537630758,0.187333316089987,9.60449078542454,0.131301215189521,0.633192895639632,WALK
1.93,-0.164834378478369,1.05850223075692,-0.0478014362599716,12.2804664450688,-1.81148523908402,1.10725591494331,-0.618913759473845,-0.438416898616645,0.0939787146991421,7.81197568021913,1.75160525999206,-2.40851713263928,-0.303152929104178,-0.178908358382463,0.0590333054059611,9.47453806110152,-0.5251058407255,0.408982482468754,WALK
1.94,-0.104030001430532,1.18286172437863,-0.0315948252356575,12.386612609397,-1.68279862980814,2.48343914393423,-0.705456054535299,-0.53233450373147,0.160693459934529,8.06389663907456,0.31456289345056,-2.30270012327735,-0.225051982794601,-0.16586018693085,-0.0554530336460903,9.47904139472278,-0.982361190806651,0.460624301479873,WALK
1.95,-0.0825879450902349,1.48469870013942,0.0076572039216856,12.9280970205597,-1.98538444790544,3.84335042063055,-0.789333515517818,-0.602105654322882,0.163019396469727,8.56511048892723,-1.20348895343589,-2.55696360536347,-0.0979198089523127,-0.115969430193664,-0.125463240414568,9.47150304141669,-1.27293418935824,0.903378329221894,WALK
1.96,0.0629981629170983,1.98850085172288,-0.0462621287193334,12.5716634374438,-3.51094154451529,4.72725282760234,-0.848200092857283,-0.638999886863032,0.156125984043626,8.4350155787662,-1.76663743091261,-3.17312842016242,0.0219319156790417,-0.102837218592653,-0.1591410587866,9.55830451696453,-1.4297646628805,1.01627324773388,WALK
1.97,0.0566208116710981,2.5717696565527,0.0330840582914278,12.5935171784741,-4.62986928445025,4.51987690236375,-0.81669097981085,-0.83216914305586,0.11200830363078,8.25739427611871,-1.76368345501353,-4.0226066172565,0.146942074616825,-0.143360138508168,-0.166415919306768,9.54519622892432,-1.39074638827441,1.18289798384914,WALK
1.98,0.203273921514747,2.92764099567502,0.134993382839774,11.8456508968361,-3.1979616710753,0.676850133368984,-0.726088412399256,-0.944930023196238,0.0512113009281331,8.26034153204557,-1.64648046604682,-4.64913361643287,0.277788843134633,-0.159960082961684,-0.13764159539314,9.16898179078367,-0.941888287502446,1.26181399279413,WALK
1.99,0.761729644434887,2.65042699222839,0.124788896907958,11.3601480188682,-1.52827331384922,-3.00206076703548,-0.530677338453233,-0.996551353522677,0.0020972383366006,8.26439953321277,-1.21033157087822,-4.66889204226764,0.419437689114567,-0.157678308730014,-0.0762771239013658,8.59429608672363,-0.139750866984938,1.22083235523938,WALK
2,1.20161155065899,2.72657009072182,-0.105389604786672,11.5276474278615,-1.24363121417763,-2.36957230135915,-0.347129273634577,-1.02880565292018,-0.034031198079639,8.61806541286007,-0.501900888253391,-3.97391953025221,0.532128192261003,-0.113485959701831,0.0047582277845959,8.15797775055969,0.578510806969913,0.500217145430438,WALK
2.01,1.27440388834025,2.83766785087785,-0.303366958617791,10.7331795947256,-1.79503935699602,-1.48564877512027,-0.28152486913219,-1.02590863810071,-0.0641110817318644,9.13301036640257,-0.184407026875516,-3.24830584389881,0.692676289771506,-0.0170286802002355,0.102865033884753,8.26308484543091,1.31700180121404,0.306481762522059,WALK
2.02,1.17738902161784,2.86954571498325,-0.54317894671337,10.4738243956522,-0.0950714729654278,-2.5342076739152,-0.270586026358552,-1.01077628586367,-0.0897081600016863,9.57456961937017,-0.68656617653264,-2.94429409994927,0.750795231987188,0.0345420477516514,0.236263949061633,8.64133945264086,2.00936161704872,0.504563958697455,WALK
2.03,1.22487836250103,2.82410509575737,-0.832160089758569,10.6946505857104,2.09476274325295,-4.46245152841163,-0.299510141794934,-1.0037263773553,-0.120477431361537,10.0020550580534,-1.59528896113544,-2.54993671814189,0.747056474675342,0.0619155016571419,0.373275210929437,9.108165738225,2.56363376120907,0.415931582411041,WALK
2.04,1.25371615607746,2.58863641718858,-1.15543461871924,11.4153005592604,3.82054187137989,-5.80070785197276,-0.324116494252169,-0.99086263105005,-0.155267984498264,10.1137455550423,-2.72408309693208,-2.53794960621241,0.717332584620378,0.102731545793189,0.483107038919572,9.54630795596253,2.94319732719248,0.630551880488282,WALK
2.05,1.24855883555299,2.42954189552041,-1.42654482973089,12.6224630718568,4.31666064792197,-6.38221155840518,-0.231676650333531,-0.956430800516749,-0.170289945594255,10.0382116387747,-3.07060973211283,-3.07997032324327,0.617142806122629,0.150817208197721,0.54171511296591,9.93936622384246,3.16944830608013,0.752171987025242,WALK
2.06,1.12493739546994,2.45832855741768,-1.50591689286216,13.1194050301051,4.00864474955917,-6.72115499737329,-0.0575066044704006,-0.888598603608705,-0.17810558405484,9.88929432371968,-2.91603051586222,-3.15094021180658,0.483348849821105,0.183439015940766,0.545462894455458,10.3135118379903,3.13811322060134,0.895981948482959,WALK
2.07,0.821777617471176,2.52206822049929,-1.40794992070671,12.7747915277891,3.39718610677224,-6.62465784757197,0.135890183596118,-0.828199991838324,-0.177898315699479,9.63999299485894,-2.65312403003685,-3.11377725850585,0.32444783085857,0.174836403735534,0.501836632468079,10.6343275950967,2.82380879783406,0.999390775477472,WALK
2.08,0.345735200838118,2.55325870110521,-1.24389831384948,12.1705741856744,2.70389948900925,-5.98299863486417,0.214324370708917,-0.779402613228678,-0.151886501787389,9.71942708831602,-1.78529150447544,-2.54453384096593,0.175453176856856,0.131409640008316,0.4127960441468,10.7003177362292,2.1600267248871,1.08957495111272,WALK
2.09,-0.335767862050957,2.45914986475667,-1.13828525479352,11.3764477909485,2.93898276059417,-4.89820166359928,0.170314318234298,-0.753698139230893,-0.137990443269268,9.4215226540807,-0.500802062583543,-1.7923714115658,0.0676689399459936,0.0900302708604911,0.300257280039672,10.5352540154229,1.41004882981958,0.865398739556633,WALK
2.1,-1.13229666713992,2.24979580804494,-1.06144993889211,11.095911000244,3.53940955808963,-4.23741971773818,0.029429207291166,-0.752144660569898,-0.133938580311534,9.23818740417733,-0.241176444603258,-1.5337149710904,0.0079204777346034,0.089891724076751,0.168650996526177,10.2991738219081,0.83589372835146,0.630935584134843,WALK
2.11,-1.72470771165913,2.07017216734722,-0.951813891080704,10.5023413445809,3.33770769221494,-3.84241497575536,-0.113205987549745,-0.776304371796931,-0.11246859473802,9.58316605677557,-0.26971047490701,-1.44842192224045,-0.0029581215046637,0.0970476615103435,0.0239857834154588,10.1605185601156,0.386807019059828,0.585681459048266,WALK
2.12,-1.86818192644779,1.91137435376087,-0.819840232593726,10.2012944294434,2.225052890818,-3.82241723630893,-0.232881119867341,-0.755647517877554,-0.0672584499613937,9.94011419134733,-0.430545993569724,-1.51723145442299,-0.0025571716590301,0.0990713043646675,-0.103987541776485,10.213651517315,0.257926107512199,0.578628754076196,WALK
2.13,-1.73136052797395,1.7360949639876,-0.720122925629238,10.0988471772915,1.25950288278736,-3.76932696549543,-0.280766678927611,-0.718397310791167,-0.0182665657742681,9.9921232084244,-0.665792545564142,-2.01073663468409,-0.0000915696174298,0.075826044363662,-0.206547160668575,10.3152155307556,0.295972192753047,0.284050634989581,WALK
2.14,-1.61696109939633,1.62915116764977,-0.666511955433049,9.5455653412825,0.307229641582493,-3.21628130505954,-0.286663714032326,-0.655442876671715,0.0050763803056063,9.91141902508323,-0.702186165864839,-2.51137587837114,0.023415838808208,0.0592892405160204,-0.270469669953983,10.2710920281549,0.65595428107492,0.198991894865548,WALK
2.15,-1.60286587438768,1.4233820896634,-0.617743079679603,9.21953875633476,-0.306349748789119,-2.94929601239196,-0.273433546131443,-0.59419039563997,0.0074099007760523,9.54504479960788,-0.433270812248193,-2.74513373219156,0.0433086109066063,0.0548102475899008,-0.296575177257878,10.1668961245945,1.02500387617976,0.0990695157788661,WALK
2.16,-1.64431099129453,1.19682704470072,-0.61356974341385,8.90700390604388,-0.70641801808712,-3.12464504387101,-0.245904772598017,-0.555080206411419,-0.0110459906687478,9.31256706952068,-0.201037047439038,-2.76246450729282,0.0595047282193377,0.0654514063655491,-0.298914389024987,9.9252721985857,1.35915095728083,0.0839003540501957,WALK
2.17,-1.6478406764756,1.0328528281857,-0.578896781788659,7.99917377978126,-0.667730076638594,-3.04884190892749,-0.24337806437994,-0.54416635587589,-0.0336667918744537,9.12711390776091,0.108333459402224,-2.72623493467716,0.0544292632883876,0.074715552184427,-0.28000708326493,9.67251844388336,1.59672743900727,0.0351010103939292,WALK
2.18,-1.6141427139754,0.862521075629309,-0.504111246173257,7.2131676485458,-0.644261636777548,-2.75981701765131,-0.265012293204392,-0.588804406965085,-0.0485913957835707,8.84306492890455,0.283814764658759,-2.84031114127772,0.0364114145189168,0.0822106418228752,-0.240549615407119,9.50312497339704,1.72875134903116,0.0351331339870692,WALK
2.19,-1.59294613436424,0.688874516625803,-0.415624194196683,6.65187174352332,-0.860114186554447,-2.48146428785456,-0.327317580143883,-0.653601214176228,-0.0562900198350309,8.68329426351092,0.486539399577549,-3.1070986879821,-0.0069211414887516,0.0800456246311222,-0.193511532264017,9.41336669543246,1.69395654908635,-0.132537591305232,WALK
2.2,-1.57562530594497,0.509473222266988,-0.320731857116333,6.32224493050196,-1.37487753238326,-2.35924933353598,-0.367000642248517,-0.70698444652848,-0.0540920463402198,8.55014045215714,0.371227973660966,-3.44945169255758,-0.037398877451661,0.0853204440356532,-0.135869544013368,9.3471688875936,1.60294832876433,-0.321501545580284,WALK
2.21,-1.58098838465407,0.358815874123222,-0.220725525634626,6.40509333771013,-1.96016385396887,-2.22680592633891,-0.397036836214335,-0.750458956657343,-0.0558465054278855,8.47803444822246,-0.253997563184729,-3.63767819445258,-0.0423668303659425,0.0761941799157837,-0.0764782841000235,9.21418984562617,1.53145670736372,-0.474926910318137,WALK
2.22,-1.58273849662389,0.25449684995472,-0.146052855958142,6.41554796145568,-2.53872880279298,-2.10547991236659,-0.442643076324302,-0.750546093637363,-0.0528636030343517,8.70407451211846,-0.718915091523547,-3.91881898491952,-0.0341047105788827,0.0924633055621109,-0.0288595727902401,9.07931685697452,1.33414685376086,-0.432247379342438,WALK
2.23,-1.48738142604769,0.161984424184589,-0.119402435043111,6.36988491331991,-3.16061510785664,-2.31979626245584,-0.441161050075874,-0.728156754966651,-0.0402702845540243,8.71465502595224,-0.765410342909104,-3.60278692643681,-0.0234555307653766,0.113273954053885,0.0044479137898035,8.96125514883311,1.16538534710285,-0.447217470636025,WALK
2.24,-1.25948448883603,0.0640563155018875,-0.118708866155573,6.3955383558471,-3.64171922613318,-2.41213036739103,-0.378939669764417,-0.738070868853503,-0.0652132918653594,8.81054286443784,-0.870394427079822,-3.230922266411,-0.011763419673097,0.128815018765802,0.0234803919845064,8.97560081362369,0.910528197949323,-0.349101901348406,WALK
2.25,-0.97949292239892,-0.0216754612297577,-0.154648562670977,6.42245251406093,-3.72251403510034,-2.25397295583282,-0.339519870725166,-0.734067121602173,-0.0889816319859401,9.04568341185719,-0.950537623761844,-3.16832038714076,-0.0011474009848603,0.135774837321456,0.0230744051843457,9.02257862882715,0.797704583174666,-0.30422318443653,WALK
2.26,-0.71576752382587,-0.150284344444878,-0.201027409149418,6.51108357213732,-3.59953053934923,-2.08979340547876,-0.328263449379244,-0.747163304595394,-0.120131903384087,9.30214380028926,-1.01939773535576,-3.18417691509701,0.0191489615857347,0.135214111805958,0.0329638473228143,9.05894163689952,0.705445522276288,-0.209793333652204,WALK
2.27,-0.444385044938572,-0.262536966511514,-0.268785351803448,6.38334122625593,-3.49700455340943,-1.70656059881437,-0.337218851356716,-0.742804159577108,-0.132215085578792,9.53750208748779,-1.00222863056878,-3.17500451625033,0.0355072679714239,0.109465002025994,0.0299416746205052,9.03668119977845,0.733899004541525,-0.350355111822647,WALK
2.28,-0.173877660765999,-0.299611025845025,-0.354579621533434,5.98233148056887,-2.84275451061465,-1.26300605021288,-0.327132608203621,-0.698571620099559,-0.121600554581825,9.6502438016659,-0.643396704743089,-2.87741843280789,0.046757608126293,0.086247550208998,0.0361308130175693,8.95805157488535,0.835424539639692,-0.367403791327717,WALK
2.29,0.0808121494936985,-0.320626946030647,-0.426757145085241,5.71274251313154,-2.01222681634316,-0.696880615661371,-0.279262504404744,-0.702812899828377,-0.121381365305292,9.61893141471443,-0.552106525871603,-2.1777958411531,0.0330646000847573,0.0600109550462719,0.0388398413167655,8.86173801224571,0.932815686931954,-0.231605308496734,WALK
2.3,0.292142485876359,-0.383859765197694,-0.423626447088142,6.27643894442733,-1.26412187811661,-0.27242215489206,-0.260756183592793,-0.712874428804389,-0.124965940036063,9.76286690149994,-0.580433837009163,-1.72821546240381,0.0115604758583477,0.025191364105479,0.0453156470979823,8.83060717852601,1.08958050005227,-0.473492995736847,WALK
2.31,0.327173586689447,-0.452074650797178,-0.379428986206028,7.3117339039614,-0.303582198715743,-0.0266821102206859,-0.282674383761528,-0.737263539774316,-0.139075605784502,9.81621456175185,-0.690994381600149,-1.588744961622,0.0109803310085724,0.0045750803454657,0.0634800277704372,8.88353471132227,1.14421579972527,-0.668343156164182,WALK
2.32,0.249057759204665,-0.523024073676617,-0.357359229831704,8.34997759288855,0.746468331381702,0.335862861504381,-0.321046850387568,-0.73894882408387,-0.156540017444552,9.91138295611013,-0.61190163333472,-1.65491511353406,-0.0010947781731303,-0.0052202405481374,0.0756691809096885,8.98279987863677,1.2431384721869,-0.704525405696248,WALK
2.33,0.245819320963246,-0.628698633549089,-0.299862978845692,9.27173801135345,1.12825454563357,1.2341638140019,-0.3251768701693,-0.71179399813054,-0.178480648983246,9.90658977218115,-0.486092315274417,-1.6953146762703,-0.0248406143884222,-0.0321109616334374,0.0860181624970347,9.18614218331549,1.28452490341005,-0.804507296762431,WALK
2.34,0.26560586747672,-0.752309208072625,-0.170260545478178,9.59764026130334,0.837558537170476,2.31175936268741,-0.329898889425853,-0.673449538978628,-0.196948835514712,9.9616505000406,-0.6089106966495,-1.67958919848446,-0.0290240159218644,-0.0600447590824262,0.0893318718310724,9.31947540199204,1.30066469699594,-0.838737198150153,WALK
2.35,0.173273001710908,-0.867703309071763,-0.017138994158743,9.68607760823441,0.165192774195158,2.66071662850719,-0.309864984758758,-0.632625945705782,-0.217806316184949,10.0974571596922,-0.652639356584715,-1.91240387357434,-0.0385336825880393,-0.0780517674235312,0.085169984488388,9.44211104399493,1.33784270088332,-0.825940003117346,WALK
2.36,-0.0848340490785827,-0.875489299400777,0.0681839683890647,9.86786826536847,-0.0043188825352187,2.42932074752225,-0.28920163797643,-0.589855882872617,-0.226811644116954,10.0117224685878,-0.980610134524398,-1.92973621752739,-0.0438368020746809,-0.0948320516541008,0.0726009176682707,9.57713057016445,1.31724591659542,-0.883949365257721,WALK
2.37,-0.359168384401502,-0.78596845212021,0.0557579389010462,9.93274485583175,0.503644841542036,2.06038865420022,-0.278543456801863,-0.570138714496745,-0.232728511521957,9.75391890080425,-1.28138938059721,-1.92456761934763,-0.0309690631985659,-0.107030594788374,0.0592884184876894,9.51224465601236,1.34916619932361,-0.910942378298966,WALK
2.38,-0.490957166807775,-0.657635148383122,-0.0597556834369927,10.2585349597518,1.39152842148172,2.10210442394744,-0.243316580831841,-0.556425173038702,-0.254845848308349,9.79116032623065,-1.47578942985774,-2.11640076636684,-0.0148680775891644,-0.118518773571384,0.0513293183326948,9.45679558322884,1.330692401189,-0.781980614052395,WALK
2.39,-0.383409740649798,-0.579753218003393,-0.228679194983159,10.9974999240345,1.99140558694541,2.58744229642417,-0.218211378406956,-0.532285802351142,-0.27744570107145,9.9130581844753,-1.5245082718481,-2.26798648382655,-0.0052764445023834,-0.135690882796262,0.035374418671017,9.43498319848075,1.29077424664283,-0.758735758503969,WALK
2.4,-0.105596842218919,-0.568704354604472,-0.393429385718809,11.8463913701954,1.81671208755978,3.42522053801129,-0.223480334737876,-0.491150957221897,-0.3012476481309,10.0381875538951,-1.46312439175333,-2.35871277527026,0.0168126892338148,-0.157778838517242,0.0201002942601693,9.5600875800953,1.28665265922915,-0.697738743921515,WALK
2.41,0.196816314216855,-0.585763955831172,-0.466941396303304,11.8934784194647,1.35684336895906,4.05610025141217,-0.209909657933281,-0.434002785113055,-0.312897896809947,10.1939418551696,-1.24337023186159,-2.36513205811841,0.0513705236428648,-0.184778849493487,0.0055012103963755,9.68840822217664,1.26780139882586,-0.789465042477909,WALK
2.42,0.441764221098921,-0.621734374352956,-0.441893885414642,10.8473732720439,1.3165830124111,4.5186699800595,-0.173601842308344,-0.357565978379642,-0.309175098549159,10.281000574044,-0.853826797100453,-2.27363545062004,0.0755229320992733,-0.216294410528191,-0.006633410618205,9.73854975951368,1.1526540936298,-0.979609319301389,WALK
2.43,0.598671074973687,-0.757523503707978,-0.339978590199056,10.0685101810806,1.73614960801105,4.48021741081364,-0.176992314556661,-0.278071042059857,-0.293012740382385,10.3062690376986,-0.359463997522187,-2.36958428500755,0.0887020721680295,-0.2446368797375,-0.0204746783196397,9.81251715849935,1.02812714347386,-1.15145605319435,WALK
2.44,0.662556126819264,-0.894639920673401,-0.267335626761935,10.1951362940586,1.48473357747469,4.25770765610708,-0.193084618991899,-0.213693752595046,-0.268978334328797,10.4056064142905,0.0383018785934147,-2.16139465665042,0.0982501384541902,-0.274865982536791,-0.0303621687083512,9.80205647475821,0.918865243187451,-1.36119619560506,WALK
2.45,0.678856454194244,-0.949515529370285,-0.255194146689485,9.99619905828991,1.0429444377024,3.8788739738045,-0.193475156712428,-0.148835276202373,-0.256965700390617,10.4611372323284,0.35011488921376,-1.66613808159692,0.109634706341498,-0.294442632701956,-0.0312909553060484,9.63829802083322,0.936576598709324,-1.58513250099203,WALK
2.46,0.570959060792619,-0.967138458203431,-0.244955552987218,9.9694085284881,0.662386658462826,3.04005514145676,-0.189192220174822,-0.0640549982602635,-0.251329276708618,10.5337020244816,0.666832912926195,-1.08690186576483,0.119189262299442,-0.314949305990428,-0.0148548559523168,9.46799836691171,1.06489882970124,-1.75094988396693,WALK
2.47,0.392264356510003,-0.90638409493958,-0.256281521446017,9.77534534267704,0.499177022189471,2.32967467705103,-0.196537812894725,0.0241454156177504,-0.251954715024463,10.645279617065,0.661472275011587,-0.450371398055312,0.126870222648425,-0.326340252649584,0.0166928602712139,9.23222284811348,1.27779611206516,-1.9677199697796,WALK
2.48,0.337035944223277,-0.797776782656302,-0.288221707776516,9.09170158413952,0.321586131040247,0.901181122079258,-0.22500995033763,0.113693158995871,-0.247340187368705,10.7837840123103,0.462073758839365,-0.147845216064981,0.118541723153481,-0.343199812260762,0.0468735321656432,9.02405979335614,1.53555353977331,-1.97092990540094,WALK
2.49,0.431014163044559,-0.824802862836987,-0.252125908150672,8.07922012742243,0.142559931058189,-0.553140690730566,-0.26512673241147,0.219328075523353,-0.254082385435251,11.0457126740246,-0.0429747905051302,-0.227757476193806,0.0776396561085142,-0.312068004837304,0.0801916732575077,9.05830510680894,1.87375495446024,-1.68683647620522,WALK
2.5,0.589002057421646,-0.878290921654497,-0.0924575467448538,9.01273271550167,-0.903561922302926,-2.28605445153598,-0.290377204454292,0.334339210155917,-0.273348565282087,11.6122553158494,-0.901066148862878,-0.56294389209526,-0.0146260694313052,-0.204157349588037,0.0785139609965962,9.50595031657054,2.04756283606345,-0.780134436774751,WALK
2.51,0.820854975261143,-0.932076537994287,0.125162254222445,11.856802054856,-1.83367765795062,-3.35443827990294,-0.296070261557352,0.462441887150541,-0.313647289257597,12.7328185886774,-1.91985346967258,-0.820977707150753,-0.181021016538575,-0.175997019476641,0.0176798591438153,10.5279682028613,1.84364864441566,0.592961035099233,WALK
2.52,0.864975582703205,-0.945640743468751,0.202955191224786,15.7927876251035,0.132060103129351,-1.89663525553687,-0.244121528855653,0.63039508195456,-0.334817832715896,13.8615508102638,-2.89075710446513,-0.489272293630445,-0.299931265114566,-0.205714576929113,-0.10219556970047,12.1622079495876,1.63764402436166,0.446330773385597,WALK
2.53,0.589444584955048,-0.717805550115912,0.0839785510779767,18.4713658077803,4.60270462344023,2.54400881430814,-0.0800726627696791,0.891798436234681,-0.288959499323361,14.618240293239,-3.4773778644578,0.607892000959161,-0.262541306394171,-0.248158427589137,-0.25337122677345,13.6366085423149,1.34338077827911,0.572203260018431,WALK
2.54,0.1493713999174,-0.683711358520783,-0.0929087426160867,16.7421865415757,7.73077397605807,5.41314834236976,0.0977079837747045,1.21548115990693,-0.211926704331495,14.8510198860286,-3.16791108586418,1.46110656688697,-0.185991037091774,-0.196703595607178,-0.447333270315592,14.3756587166668,1.02491803832994,1.4880644712736,WALK
2.55,-0.277831331553409,-0.84928471852834,-0.203960967179354,12.7627609631845,4.21300545145712,2.39406902174167,0.317711914202613,1.5780598249908,-0.158433093522457,14.2798128790412,-1.43651266311232,1.43132193798251,-0.0243349483206006,-0.168592207156375,-0.621629575743263,14.247530634256,0.705353479235323,1.86047002687797,WALK
2.56,-0.265585288645346,-0.878847105895446,-0.190085381043022,8.82273060156243,-1.8464968230666,-1.88857402783968,0.588520455656425,1.87884147679557,-0.182258512129765,12.7694263695561,1.60541664373242,0.915821217181984,0.194081545395995,-0.25088805602268,-0.679521141596438,12.9956177424708,0.270271268300885,1.15391585496806,WALK
2.57,0.117068575428694,-0.998628739586411,-0.113893587361303,6.16854892144564,-5.58675028329505,-3.77763021761005,0.760819713248969,2.17530530541922,-0.275325542895356,11.8375720465037,4.10761047379667,0.204404607680871,0.272775474224355,-0.316233249260504,-0.598232589282987,11.2145958829507,0.0630088457411433,0.741280595748295,WALK
2.58,0.638449020117325,-1.18998572539084,0.0454916361927093,5.31499077312231,-6.30968411624257,-3.9344313879691,0.888612694061953,2.59913649227178,-0.350576098186109,12.0950732356003,4.57893231884177,0.558080650558681,0.169625460536728,-0.32480485712543,-0.441013900996636,9.65088659906425,0.359465785711272,0.396138088374711,WALK
2.59,0.962696688905431,-1.06881117712419,0.137598372588163,5.27290086603957,-4.78309531050322,-3.88737481525356,0.942939784238813,3.05100641690558,-0.412290973008653,11.9844010934019,3.80681056100538,1.52091345188432,0.029528963655264,-0.228098263109039,-0.272324086326751,8.62354016032967,1.00736832156701,0.245460449214688,WALK
2.6,1.12503229567752,-0.917678069042837,0.140653724201666,6.09999125492735,-2.55654253915964,-4.48983793584069,0.664895826133467,3.31286243008498,-0.355634730056002,11.8053976222268,3.06636373804918,1.34485001143974,-0.145978835416768,-0.175951349566462,-0.124464474630245,8.09478814073578,1.55495680702286,0.886596025286691,WALK
2.61,1.14377762724242,-1.04491629371066,0.192269282360286,7.98775715483539,0.745380491189111,-4.31246014226162,0.116794064384773,3.36962935595889,-0.230490549749485,11.7987842507634,2.00817239366962,0.359077916694672,-0.246970215183046,-0.139999104194124,-0.0173148373338426,7.80718630251261,1.83475377811451,1.28782834040518,WALK
2.62,1.05159738011024,-1.17503838076367,0.269139804807394,9.698136261499,3.49530028870416,-4.23779169736568,-0.414594064802215,3.37523422510566,-0.0000452835240677,11.8631768746226,0.647428442412423,-0.46220618210879,-0.273070260976266,-0.0829658396627352,0.0378219547262032,7.79271927541688,1.56633555173773,1.53571199624388,WALK
2.63,0.854814167577407,-1.2078538011041,0.322271728527201,10.2793371477847,4.71714453281842,-4.51672727447434,-0.900942485964859,3.24542526485242,0.300879558317254,12.0826277698934,-1.05761389003847,-2.29948903643998,-0.304189845352974,0.0070714934299537,0.0330079535727196,7.93821886193351,1.25113559834287,1.67723800792207,WALK
2.64,0.489582305643919,-1.21815311268291,0.398950341505662,10.1928961397841,4.91619345100736,-4.11663591566695,-1.18849897348174,3.0484084115493,0.567030199436298,13.423521067254,-1.87730093811881,-4.91000443483174,-0.328845465793977,0.113002985855497,-0.0149657954887587,8.27472609797123,0.926669010415146,1.59831183133322,WALK
2.65,0.0591277877798008,-1.15986135689913,0.482952925904259,9.77851882248061,4.23252823382954,-3.55728018716182,-1.15370817958364,2.90346200840373,0.825219531062485,14.6535996860935,-2.02659776266108,-6.8528384410956,-0.322242879713705,0.227422818473638,-0.0997862826994444,9.08939344222136,0.658909683268685,1.57508101858243,WALK
2.66,-0.255747280019381,-1.07738796485795,0.523594201352477,9.28047801649082,3.27580419437631,-3.35694793276576,-0.879387254969823,2.83988791027832,1.04530701895378,15.0260799109703,-2.20801744363586,-7.27205132712639,-0.281036321560425,0.281281255223648,-0.20270969998867,10.1888341822836,0.449706587740349,1.50709380984036,WALK
2.67,-0.416332546716782,-1.00203566098678,0.475307674057473,9.0140489747687,2.13841997839469,-2.84537600464301,-0.66928523276567,2.7720039421792,1.12005656493333,13.929577573527,-2.49935968214988,-7.14230424175611,-0.248659542590953,0.293865330488118,-0.303394020587127,11.0914695258029,0.0447890955362452,1.42617289229223,WALK
2.68,-0.424278787309568,-0.950198445332554,0.402795474224776,9.3091209958144,1.17342060717592,-2.37797671239034,-0.373438386586864,2.68027623640214,1.05151622339105,12.9404709115293,-2.9980836632886,-7.5583928790138,-0.245690823761791,0.228496831103606,-0.365423930637222,11.3019919985108,-0.212283810793684,1.3947841584317,WALK
2.69,-0.320188188006778,-0.876539962265517,0.352422956131268,9.76937855157527,0.679059069441065,-2.19692182827632,-0.0491159867884426,2.57572449026663,0.935365072951467,11.0626371237231,-1.19828352213686,-6.94346393852585,-0.236761603964758,0.144741292605317,-0.351483645833799,11.0162372976687,-0.24874270129689,1.19062933837226,WALK
2.7,-0.144608500714271,-0.808842265000569,0.323430250884166,10.1460092225498,0.7104956094168,-2.12191335119544,0.308458034165603,2.40832654006358,0.803825219142232,10.7443696263463,-1.16281742828345,-6.49680392048271,-0.189744362438174,0.12798712915899,-0.277249602716331,10.6388954409168,-0.155610044496744,0.957376357346246,WALK
2.71,-0.0015659331030223,-0.774774506130817,0.266547691335075,10.1197014891527,0.205663859515062,-2.01120821419087,0.731735164093258,2.3503197345281,0.711506246829194,10.0997702929108,-0.885260638415388,-5.16554739362851,-0.129571288289842,0.133192111355922,-0.185229050926336,10.366012100658,-0.0328099007443762,0.869710465163686,WALK
2.72,0.197398370467958,-0.781525477793291,0.20064326562516,9.83714650629219,-0.48299707598612,-2.04223843974534,1.0276541817443,2.30485647815562,0.671558472633339,9.29755447550593,-0.898268034574271,-3.92314240510959,-0.0592978163339712,0.131065094908873,-0.0935080739005605,10.2014983955908,0.0199052852698242,0.789948504119126,WALK
2.73,0.46581909799333,-0.807899904510235,0.190198359221435,9.36069310601501,-0.691864181412963,-2.26018398561331,1.21527627322921,2.25818655575526,0.627883687907077,8.76237047954704,-1.25093411052385,-3.24383953876824,0.0187384382045405,0.104110955174635,-0.0248703199721578,9.96932424332539,-0.0952008437752722,0.721921585468791,WALK
2.74,0.662999206311592,-0.836713182926857,0.200626158849015,9.15951529238303,-0.607542953664039,-2.27488104413886,1.30222923072565,2.16113775624396,0.593950398671654,8.89776805147903,-1.15066553790018,-2.89289101178194,0.107018684351091,0.0651904323789608,0.0316067779956784,9.71450080345055,-0.152905383873155,0.621305106874337,WALK
2.75,0.799236954435665,-0.8461484730234,0.217686634847599,9.21486077318988,-0.203924288757182,-2.30513607766927,1.25785111744123,2.03130603504872,0.592604144092744,9.34149162582501,-0.432181610454478,-2.47384722551256,0.196138301583855,0.0264347874619223,0.0699970508251739,9.56137828017654,-0.214368428394844,0.416956020090081,WALK
2.76,0.849467119944439,-0.848042876805578,0.243630551819567,9.27399761020433,0.662048298214151,-2.85698340700219,1.15960588430902,1.84991704895079,0.613561478744201,9.38053926718441,0.160549054847251,-2.60739327255826,0.258946395302815,0.0003640047817433,0.106317938290152,9.54701505864331,-0.100876100195208,0.201578310246284,WALK
2.77,0.831683243961592,-0.818178197320106,0.251232487134701,9.13781852032946,1.3918987288301,-2.93138890341929,1.13756238166435,1.69039137968469,0.615203452968918,9.19209373225616,0.345651270797163,-2.83159115625675,0.299546929388012,-0.01586820481743,0.134790397900398,9.62810042547536,0.0818490068062126,-0.0750898664170426,WALK
2.78,0.749599753916998,-0.810195490771803,0.249520050028198,9.22579944288317,1.81065059213177,-2.87373095653729,1.28791485710552,1.54802156128191,0.582015463482983,8.31358016189584,0.285406765523129,-3.13834375634413,0.318926467512741,-0.0076897087852808,0.167288945677723,9.67957582944664,0.293236037957169,-0.0976935803822073,WALK
2.79,0.655972763819047,-0.780419112827086,0.233599170403864,9.22726282150895,2.10828674807279,-3.16949333098062,1.51074645738829,1.37993064437483,0.525138998895006,7.48836831952786,0.195846820380166,-3.39743251541356,0.309151162608515,0.0176001279948621,0.188289496414113,9.66040252730708,0.469928796249595,-0.072857687959673,WALK
2.8,0.562799309639694,-0.756427350404294,0.212778222677168,9.04727622053732,2.22609910254469,-3.13045835646994,1.58889264422167,1.19424084499354,0.486311973652513,6.93243675704282,-0.0607809637746889,-3.01548838872684,0.27672990398264,0.0618876365719519,0.200263109166542,9.59929598992163,0.643393669008054,-0.136824937435074,WALK
2.81,0.473662768815245,-0.745185949800758,0.194509964104663,9.07502944457536,1.93378537566232,-3.04407502501006,1.64614616635578,1.02600857482651,0.418392002237975,6.43409836492758,0.147268957660888,-2.97415340917871,0.235027368023446,0.116883074840317,0.192597830267678,9.58634637367154,0.885081882073059,-0.168198312102423,WALK
2.82,0.412346424155044,-0.7214257882686,0.180254643467451,9.08670666987855,1.2892806187637,-3.16909035904741,1.78886055344431,0.86904156877272,0.281495982479769,6.08688553477899,0.974114642512076,-3.21063170957525,0.186249453654928,0.190382792714224,0.180032467179209,9.52664341290011,0.98400332857962,-0.0836332018442563,WALK
2.83,0.38249897097346,-0.695144568800125,0.176905613690686,9.08438547295931,0.818208342931726,-3.13346230807546,1.94401885291107,0.716675749895399,0.133306332484463,6.01086257979536,1.91545171979271,-3.2661472029396,0.127062041850668,0.243573407034965,0.141147796433432,9.38273451269402,1.0348272241617,0.06012457760119,WALK
2.84,0.391714897117398,-0.678606148301625,0.180772269825882,8.84363971514947,0.530880161728983,-3.2054399524017,1.962750885651,0.599092439043547,0.01856035986662,6.07745209405646,2.43859280606675,-3.19911046720016,0.0516756237492784,0.275918737887823,0.0969057278150802,9.21395972786905,0.955708989028379,0.0069176877805601,WALK
2.85,0.369107282690336,-0.67239094283611,0.193356947944443,8.68944044440264,0.408197472352595,-3.1043748117899,1.86213348674999,0.511503920307866,-0.046663493712846,6.20957102310701,2.66518030295144,-3.03917548040471,0.0072490493867852,0.286093307989031,0.0545431948637519,9.158097493763,0.885241208933244,-0.0963685018350755,WALK
2.86,0.368734994657745,-0.673739929995823,0.213318593173058,8.6990711628672,0.497322501923221,-3.29111342987603,1.67257506734148,0.478017427901635,-0.0419595380567014,6.05897982791659,2.96540912039395,-2.60919747705349,-0.0292842824776808,0.291008319661743,0.0154149174194975,9.01491717335052,0.804922342247485,-0.126378990735312,WALK
2.87,0.412388196187455,-0.684678201455254,0.235921653117132,8.65195268044669,0.692878951641441,-3.37164468628672,1.38207888788562,0.402423493878261,-0.0031137353857856,5.73785381070914,3.89429905468282,-2.00523723397547,-0.0633322177107573,0.300442035692774,-0.0176718141446644,9.0081470725627,0.648150174978648,-0.046980519512587,WALK
2.88,0.407769193554585,-0.715082721293806,0.277938112830748,8.82566235987842,0.951748452864335,-3.03771430133434,0.90156632678053,0.268867964333387,0.051509503260004,5.51254523146207,4.27877451876992,-1.37775674670543,-0.0927188582513738,0.294105811106112,-0.0381167658003381,9.00908689546133,0.600902747601798,0.013420433297242,WALK
2.89,0.359011588753029,-0.716771649509345,0.311387025809966,8.96944252542804,1.1406807281719,-3.04870246412042,0.341033065083353,0.10803663261779,0.128208130425226,5.53007905948641,3.44042526662334,-0.818480619996016,-0.109177523973262,0.278766526209209,-0.0451141495828695,9.00484532569456,0.522784954244689,-0.0472989835909327,WALK
2.9,0.33430860120318,-0.721347918053102,0.329518390544578,9.17976472030826,1.03868447463015,-2.82048731335053,-0.186547965802463,-0.0528933673098823,0.204256000958695,5.57877139902036,2.62547265630131,-0.336610290970207,-0.101975905212877,0.248825082882293,-0.0513915775579567,8.97054732216542,0.450981376240146,-0.155158622267277,WALK
2.91,0.301715573398882,-0.728735089998933,0.350115496688842,9.36500479391609,0.956130482838515,-2.54650192221959,-0.581661097520195,-0.210167528127813,0.275506599270016,5.59244729234857,1.99419398552403,-0.082898561992895,-0.0789392687441355,0.234628503368975,-0.0482394820166058,8.94013793753714,0.342404904627827,-0.285425517601434,WALK
2.92,0.266959818593903,-0.723405685554294,0.366977208761269,9.47196602214001,0.919956622732334,-2.37808706026245,-0.765298660523035,-0.377908838787254,0.345603540775394,5.6647546411197,1.31599999512861,0.173245934379226,-0.0429082421648026,0.222372088999514,-0.0452058891058078,8.95795890964274,0.252065617723863,-0.354335959668484,WALK
2.93,0.237117444726738,-0.713381213990396,0.356933460278178,9.55717201261784,0.835944746500071,-2.02109604836398,-0.744005947278702,-0.584643901815405,0.400142648050197,6.04873991622044,0.760761010811745,0.138092761133752,-0.014445703137675,0.209613076038463,-0.0460258635921694,8.99669692887753,0.148546080265615,-0.426592274239395,WALK
2.94,0.245424623227427,-0.708289232604539,0.345618711520151,9.46285908408361,0.97381782425412,-2.05341176439187,-0.608815250610325,-0.812075967492982,0.434398989162241,6.48049708590238,0.312289028404389,-0.161639364263402,0.0233581825248046,0.194202165728463,-0.0574545951825396,8.98653426849005,0.104922572626401,-0.499429728339917,WALK
2.95,0.296650494092525,-0.706803456267288,0.330052537708739,9.37038439116639,1.16607873035611,-2.30124965053815,-0.422880667873875,-1.05281529234596,0.424134399215407,7.06075577867836,-0.32310137234093,-0.639061121227463,0.0593354317527484,0.176574031833855,-0.0628206333553048,9.03446226163939,0.0408740956177922,-0.733263263932722,WALK
2.96,0.322705249163653,-0.687276775110459,0.315802922177689,9.46928736230494,1.1030007545952,-2.26351403830012,-0.334371815995374,-1.2740629108094,0.397984134977627,7.86961872590145,-1.02583170625092,-0.780609377790065,0.0841674133521011,0.170370451315128,-0.0651224916422754,9.06334409526862,-0.0410657356375904,-0.759626306883356,WALK
2.97,0.318241566669271,-0.660371496992078,0.308219391534805,9.54429086105454,1.13783726118884,-2.38874095167112,-0.368682891900262,-1.4115309900586,0.372306929728454,8.51484444012006,-1.5010692677581,-0.497928374320264,0.0824775250687386,0.134790386176863,-0.0532555931757719,9.14950046682419,-0.0564330801130143,-0.633341861302559,WALK
2.98,0.347174406600496,-0.660399335320228,0.308033141804869,9.66600222059283,0.910985673880455,-2.24321273187984,-0.400135592674671,-1.53357669175623,0.348037746473551,9.15148480578234,-1.60452717320893,0.234449096763899,0.0679531497820417,0.0972218276046768,-0.0413682446227375,9.22890607044938,-0.0674658398566531,-0.610491177428057,WALK
2.99,0.380786139962243,-0.65500338907733,0.314374971924429,9.59032415179154,0.817745336250956,-2.19762244247244,-0.466031059018131,-1.63158494696536,0.313097986941721,9.90253420429388,-1.51606639844966,1.24136298609366,0.0676853778358774,0.0465527551006255,-0.018973829660469,9.25645486717029,0.0379898929116132,-0.701288141772893,WALK
3,0.440863317612629,-0.640810189426784,0.325052131795135,9.4515846251635,0.56875711241234,-2.24411685891862,-0.565082196711749,-1.76419129187037,0.214883835506675,10.6065184985541,-1.24155416593533,2.4940425318767,0.112648433024712,-0.0048008582646382,0.0115022094378315,9.36585210732905,0.259398700193372,-1.03370945391849,WALK
3.01,0.49388573798122,-0.617143540673957,0.337333652659937,9.4492063997859,0.463732612341367,-2.18862608245436,-0.62458207344043,-1.89397424448032,0.0988277171917246,11.0034081922647,-0.432030903032308,3.68132856169668,0.168771178051166,-0.064836766965289,0.0432840878303719,9.46399443310131,0.447609132823064,-1.28957650370372,WALK
3.02,0.538861394808178,-0.580403229275348,0.34216678809249,9.49833875225956,0.392635075328811,-2.04986166447155,-0.578200918421161,-1.89350038828315,0.0491105008160313,11.5204489399947,-0.128772782556732,4.47174453770233,0.204408261894556,-0.101302658351471,0.0718335275936507,9.53080917091353,0.566015635633542,-1.43326767817841,WALK
3.03,0.540665424892446,-0.529734877022248,0.338657576055464,9.55194983750063,0.480708183244871,-2.01620664409638,-0.418856927341545,-1.73849695158037,0.0619574440238426,12.1362334016568,-0.642430087308175,5.08777763116851,0.248533158478988,-0.117623271412251,0.0998905639275099,9.64360961300002,0.749169443325918,-1.55056078360547,WALK
3.04,0.497729892862128,-0.477082960090005,0.360066893799046,9.85910081434221,1.01324326704688,-2.37263648505996,-0.21311198453906,-1.49697200041099,0.0757294737527327,12.949835837276,-0.887088654085221,5.62844402378707,0.259083834632925,-0.112017117659867,0.126903513647049,9.88394680591354,0.805233456121605,-1.32074584176673,WALK
3.05,0.427673649844547,-0.424869134603074,0.367032426766819,10.1031189030474,1.66137687768498,-3.19122888890525,0.0074766322527313,-1.26450700137004,0.0767504409531639,13.608213139983,-0.325604254914384,5.72944075355573,0.195690391667812,-0.110437429867278,0.150776930899495,10.0918053231201,0.78310606885638,-0.919803143208935,WALK
3.06,0.3646462893203,-0.367636655664684,0.352862157211108,10.497363165241,2.0124991553615,-3.09458988910985,0.200769023280713,-1.08861352666182,0.0560158818937725,13.2027153359004,0.35715990482576,5.81731204610427,0.0612397178065529,-0.11288768026387,0.167932176590689,10.324032586025,0.878125884150666,-0.771005311046654,WALK
3.07,0.229306761692737,-0.313095506692034,0.352606046474985,10.6275370372736,1.50311772164495,-2.50138343922619,0.383368659137331,-0.976921563123883,0.0002233060016115,12.1368266452785,0.905833214517533,5.52137050329862,-0.0304940063703244,-0.0650665173990165,0.196601574639675,10.5130737812739,0.843435794798605,-0.841081160669344,WALK
3.08,0.134585405357192,-0.267825882614307,0.360422763767414,10.5254937439863,0.846112767192562,-2.38323893903176,0.521668997744601,-0.952341277209028,-0.0557918767855477,11.3453177435064,1.4972894687887,4.22581651162667,-0.152043799935257,-0.037792652079896,0.19708161510121,10.5233942174271,0.762245252738071,-0.634914244965725,WALK
3.09,0.104363054335085,-0.200173774427657,0.37767188442992,10.5496782575494,0.236985732946861,-2.15091487652901,0.6732394042795,-0.980212129421308,-0.0681720145137053,10.5684266239023,2.02803658334563,2.25987960125482,-0.238191036187593,-0.0390430561109672,0.175554322027405,10.3288085101147,0.743148568596292,-0.849929375970632,WALK
3.1,0.0986383385608652,-0.134419384791125,0.395177319820542,10.5831363412929,0.0131594786634014,-1.78749115502566,0.770493687351133,-0.973556412823234,-0.0386670834002861,10.2922596883956,2.17656421455424,0.77040568643996,-0.276917379863698,-0.0507714298066757,0.132375100818643,10.1585520562064,0.60053685250819,-0.846607686559583,WALK
3.11,0.115624452716889,-0.0761285013171468,0.397385528126695,10.6352272792937,0.169361232075112,-1.58866431673968,0.704395412493513,-0.963840569864749,0.0361245853953837,10.5124876348394,1.30587872511475,0.352633141576202,-0.294859791016842,-0.0785345869429787,0.0803121418466223,10.2392646834433,0.666304682316394,-0.526784416054522,WALK
3.12,0.192299243673752,-0.021127357002068,0.392563406341587,11.0514738398753,0.379386971910747,-1.63904940321213,0.324762767360129,-1.14296294887596,0.131371586814549,10.4008324528908,0.148737489417563,0.507132383371583,-0.285232002001778,-0.165458541878099,0.0472739675903002,10.5284039436714,1.07272374025038,-0.335214955929317,WALK
3.13,0.267512336057267,0.066529073054555,0.371839824431454,11.5770240433974,0.377136464796671,-1.42250010466726,-0.50374732830706,-1.55364281421528,0.0805513116949978,12.1863300243357,-1.50459136410079,-1.12401699637209,-0.296391434350709,-0.205739582551375,0.0538236732670977,10.8896422121074,1.34690275699633,-0.0420337482923718,WALK
3.14,0.306480560953677,0.158675798831284,0.353757315746285,12.2677784617969,0.336573816892464,-1.06946434366982,-1.13228230562462,-1.52867196236872,0.0108518892481272,17.4703411705623,-3.21436905536102,-2.12801164834392,-0.390320070785082,-0.21445880414633,0.119280961261745,11.5778799742518,1.50169550776325,0.147718506551043,WALK
3.15,0.355493084685218,0.274520622234271,0.330283089488519,12.9783660578679,0.412779139256967,-0.645723926992124,-0.652482233061381,-0.640475529026507,0.18987379362712,19.2217010221177,-3.50184212621941,2.89412614603827,-0.524678686199287,-0.183039804301467,0.218176131832028,12.3166932616176,1.63341295513862,0.30491821400756,WALK
3.16,0.427569876954126,0.43481094469972,0.282233183736038,13.5907242857358,0.526512755245031,-0.0563453662609881,0.281028614147096,-0.21218870684597,0.228216167276305,15.1050386209392,-1.4596034271464,6.27105202899667,-0.657511191360901,-0.154093118902232,0.332522617165067,12.889712446738,1.66575808025326,0.968462754314044,WALK
3.17,0.468524071414121,0.629361861215647,0.199127128055783,13.7355927489805,0.516825905144798,0.97505156340257,0.375554655512791,-0.52545285187075,0.0088793045668128,10.5587991086216,1.02743841005012,2.35089089863983,-0.837092134977679,-0.157475559106948,0.431102762858984,12.7542737251936,1.387952304404,1.44974739440739,WALK
3.18,0.52859839420248,0.839244687648771,0.0982433204590717,13.7332447889523,0.29205361911317,2.31330003367209,-0.172736647465059,-0.951023978530094,-0.152881227519604,8.59072660665627,2.92383838139182,-2.2964235738211,-0.94067527801238,-0.220046378119724,0.456855614747799,12.0112790591874,1.0209433668426,0.859218659840725,WALK
3.19,0.50938259983386,1.08954959210027,0.0267335439525472,13.9527973212141,0.100049925776894,4.14125926837216,-0.648914236749536,-1.12268187491229,-0.144832055017265,6.98409030134495,3.7179694754464,-4.25507536717153,-0.892156319166597,-0.224496900002147,0.410185862393876,11.2233557760437,0.662416848121138,1.05214756791211,WALK
3.2,0.339966456576423,1.5275983865073,-0.0617711269453922,13.7893797420457,0.498273307270622,5.84435544393682,-0.849998140780024,-1.14055387854687,-0.0891698355611652,5.0463047647095,3.40195148849854,-4.71941011340602,-0.756407280699946,-0.249051330982764,0.299837293266893,10.6310808125056,0.113784540233154,1.29295965736962,WALK
3.21,0.25851428436362,2.04176231727112,-0.131229619304963,12.4154444285803,-1.34304101234244,5.97130777092423,-0.851123288995658,-1.03666312733129,-0.0106712473573173,4.27954332682655,2.28654710006452,-4.95265403848075,-0.595568652939986,-0.278184186915789,0.1661441079088,10.330360532949,-0.525392130767563,1.01656986112934,WALK
3.22,0.254531398050839,2.46902195237236,-0.160100259852061,12.3627515628196,-2.79429464769958,4.11377392196864,-0.805316619776667,-0.994513044855849,0.0435243503182651,5.03753581006945,0.380121423880694,-5.13446470232021,-0.343484971239127,-0.321888444971966,0.0612011561870711,9.86238909380518,-0.90248499025901,1.4269689915003,WALK
3.23,0.778034213618357,2.56149255138271,-0.253186430561439,11.1021916513209,-0.897371777979662,-0.129719222128623,-0.700445833929099,-1.02794798421426,0.0890570319623145,6.4527533812692,-2.18430806212389,-4.69255952869358,-0.0864865495915786,-0.404022509789953,0.003390971476666,9.09933096310877,-1.35399597572724,2.16360655258174,WALK
3.24,1.32845085698468,2.51133911968334,-0.425348817807706,11.8301562032877,0.404003991314208,-3.14746553529215,-0.537661932338129,-1.1569494995202,0.0803739988896283,7.46717022426368,-5.0919371235527,-3.24706488803907,0.0682214134940586,-0.462101275371607,-0.011105796588436,8.49030878970475,-1.59847869565774,1.43737865434595,WALK
3.25,1.1748570760061,2.8977315641371,-0.745220854601564,11.8129129992192,0.155359270513516,-2.84950287393582,-0.474131608577995,-1.32223847850547,0.0121057286766982,8.52251703918035,-6.12213396491911,-2.91946777758938,0.265787496065325,-0.342858573015535,0.0234972644070276,7.96500160903662,-1.70149614921071,0.687143327318794,WALK
3.26,0.700352139253507,3.18255104329494,-1.00578572286367,10.6508758295328,0.0412814467164777,-2.74510448539023,-0.486073175188542,-1.38517350454769,-0.09371083181322,9.46115208855932,-5.62663454104252,-4.17147920321651,0.451229860641018,-0.189976552822773,0.0902708392034666,7.5489489332335,-1.60736814993454,0.816208704347836,WALK
3.27,0.578936630775435,2.96297245394578,-1.10006267392969,10.7395979181212,1.99401615269676,-4.78664085319868,-0.368200395637697,-1.34466548632691,-0.232856956995876,9.7505409162415,-4.59553247435937,-5.27999175668391,0.586635756608912,-0.0331435761940974,0.172040518551469,7.34685041823523,-1.30066385338684,0.834629453204714,WALK
3.28,0.561217002178507,2.80610728404434,-1.2350377619088,12.39660272583,4.52877847720036,-5.88375285400497,-0.0741227584801154,-1.29159245876277,-0.312023489414895,9.5145803204601,-3.06553017019917,-5.06060179098983,0.71854046006256,0.112287381863065,0.266504304706943,7.60306187018158,-0.546447969667905,0.320924995835679,WALK
3.29,0.0483883188984026,2.9756767286634,-1.39198638756155,14.1985870219447,5.20879089238489,-5.53809717655774,0.245425204401592,-1.20540791724966,-0.328872970782181,9.32040198569658,-1.32930855161129,-4.43395417334482,0.842197256830515,0.278204139633163,0.370425828368383,8.39027406071603,0.362226905402934,0.267421014939707,WALK
3.3,-0.678012882980443,2.95550234533124,-1.33539642302598,14.2083193639782,4.37723332158629,-5.29852647813114,0.361242097862194,-1.11058913010654,-0.287544637241933,9.34675069471058,0.565781944386095,-3.38582338336044,0.868714634637549,0.441323550372424,0.476879789203303,9.63175153627337,1.31146593854451,0.505960939872884,WALK
3.31,-1.28165364010072,2.84514879119912,-1.19064906786504,14.6013647416686,3.7373017093204,-5.25261263831973,0.22267480090376,-1.04515890287413,-0.252678772608587,9.23235093986641,1.23653642361343,-2.91740516147457,0.847674154346978,0.519524862013178,0.539330237063423,10.945091344825,2.32970258683596,0.77436452054162,WALK
3.32,-1.5648454266882,2.70286964028841,-1.10224671358127,14.1799836917588,2.63681887597027,-5.09529245681079,0.102672668893518,-1.05153659015144,-0.209739210862957,9.70495674660283,0.862007869681616,-2.38980953428712,0.785458785777024,0.458041006494125,0.555730458395871,11.7283778472951,3.17739505043957,0.808574131670643,WALK
3.33,-1.92780900578344,2.67298399494134,-1.05121875609225,13.3704031648509,1.59242871007668,-5.37973380577042,0.0092721285424282,-1.03659670112335,-0.136703514395186,10.0550116531055,0.316602103728097,-2.0258255964119,0.668991808863984,0.375728471249319,0.510472921817278,11.5374762803172,3.44689366905992,0.93706031119939,WALK
3.34,-2.17178145374462,2.69832714843259,-1.01574166523353,12.5472030496684,0.730007065950073,-5.68746512463044,-0.123068184738191,-1.00502245681842,-0.0572809266490297,9.86353068312168,0.132347423940348,-2.20387545492202,0.495070013384726,0.305724663566455,0.404396033720936,10.7550061184869,3.26641164211332,1.00619772779456,WALK
3.35,-2.02778085620556,2.64056025093803,-0.929096261797319,11.3052653831704,0.475678021807981,-6.07146724181871,-0.325313956671341,-1.01960674761708,0.010685115279473,9.83471294812586,-0.229593876131241,-2.15455715766934,0.299901826973427,0.238261915579198,0.265897365609458,10.0889966471925,2.82129716288155,1.03472018659396,WALK
3.36,-1.79655185387781,2.55079537253491,-0.807527966399923,10.46148318687,-0.106701028338805,-5.01059711257402,-0.474866529508769,-0.981790970794893,0.0520574352031909,9.91885489254077,-0.784244616355284,-2.16862360487225,0.100255599093683,0.181511991842662,0.115640829940549,9.66052071662749,2.29923258423606,1.12234193787417,WALK
3.37,-1.63540383467634,2.37408731147008,-0.732399986890526,10.0400733545567,-0.968947325462524,-3.9969359864669,-0.524174770066719,-0.920233598434634,0.0663423470589064,9.92789722567049,-1.15350883079471,-1.92135942818063,-0.0573660903232835,0.110381987762618,-0.0312893281688184,9.62342914775894,1.65600142121368,0.987694851261561,WALK
3.38,-1.50273789302626,2.13912431345736,-0.703141038068431,9.3037232086643,-1.55936112663295,-3.725013945002,-0.524283849337996,-0.880627369649215,0.0588026219438872,9.9878856889573,-1.23113117827735,-1.88644687015166,-0.135829200036031,0.0753039540378658,-0.167264099312403,9.74121324674863,1.27025781357683,0.60094037648268,WALK
3.39,-1.35923872578612,1.89874692322155,-0.731146505599728,8.2775648206449,-2.29038474708859,-3.55646047277617,-0.520512322564071,-0.831973649280707,0.0396216820725771,9.87279572781531,-0.833325294087066,-1.81042758966254,-0.17761322074021,0.0795377551828145,-0.263630920640257,9.70283746113424,1.28674410420109,0.315584513876427,WALK
3.4,-1.19587370269378,1.65738811231378,-0.771968621944957,7.59697723672121,-2.56998926162265,-3.55208594987861,-0.567496565229183,-0.80061000340968,-0.0001664867447206,9.63118341568066,-0.32089444633523,-1.77001289178208,-0.196723064306248,0.0925378120242251,-0.327270958379707,9.5289195450217,1.49995803840708,0.0332807950973507,WALK
3.41,-1.0982966445181,1.43328245144646,-0.778820135136943,7.39802381321395,-1.82640114436953,-3.47027410348522,-0.637279306341254,-0.786104894834776,-0.0373755902875099,9.43359441290849,0.11109299989443,-2.12950918847335,-0.199613493487999,0.105599839692636,-0.352167770043537,9.40576643679011,1.64920911801432,-0.147597400910486,WALK
3.42,-0.990851176198947,1.27236257624955,-0.747448007958068,7.61449275657754,-1.68263271118969,-3.47806810027927,-0.679826369466224,-0.801524429359967,-0.0553558494023381,9.1726982054076,0.342088248630862,-2.43611437033469,-0.205506205128181,0.0914215507214637,-0.352176416131669,9.22791593956917,1.69063620795387,-0.0988518760736737,WALK
3.43,-0.866725299544073,1.14301358042141,-0.683165287720218,7.69129877300949,-2.00796764033106,-3.24781147216408,-0.72251389981033,-0.818638819293931,-0.0531617324479301,9.21936155759028,0.490441082938141,-2.78712599567226,-0.223652208798367,0.0645007266388297,-0.325881520500696,9.14853925461734,1.65823177952934,-0.0629795612300399,WALK
3.44,-0.764133954102085,1.0007093522427,-0.625879835591508,7.34960774967809,-1.8973807458399,-3.30605988688036,-0.711137200259011,-0.831171695274775,-0.0398039919114513,9.20081139553882,-0.0954339023969931,-3.08307467255378,-0.244294548983212,0.041459869847028,-0.280463622438004,9.12544447400616,1.53890834453443,-0.0799012763989732,WALK
3.45,-0.661365290280961,0.850098936474941,-0.611897069829005,6.70232014423359,-1.82822532860401,-3.42922902412636,-0.688882484400198,-0.840640110918496,-0.0222330685039822,9.12426046538585,-0.608233668056301,-3.44623831115133,-0.269164260343933,0.0297979834477647,-0.214281339753296,9.16095301487972,1.29468034497956,-0.169743361401618,WALK
3.46,-0.581431027837405,0.677952991780137,-0.610378528845967,5.97403570690759,-1.56516366734773,-3.60009372593039,-0.686776286303754,-0.861520597807763,-0.0092461825093822,8.90625095303549,-0.926456016930136,-3.61353694565782,-0.279185300411966,0.0289831230424665,-0.140253807697261,9.09147001802894,0.920371961106141,-0.422913525082062,WALK
3.47,-0.545274333335902,0.500338788059232,-0.606981283092748,5.54413988094182,-1.28425882244972,-3.7004434967141,-0.702718244080912,-0.877283244868493,-0.0089479480448127,8.78916134207535,-1.0700751477497,-3.7258645580743,-0.286295142781073,0.0763176826551815,-0.0758717058582977,9.0937835627066,0.532041390067427,-0.538625397146408,WALK
3.48,-0.501664092315882,0.324183237711154,-0.594943137257741,5.14668817726822,-1.03732676203288,-3.7889762891655,-0.676486333599249,-0.863669086991444,-0.0355397554105114,8.65557711967878,-0.997915082493986,-3.79064841228429,-0.267432719552351,0.119810250359885,-0.0132410742089257,9.1029238946394,0.255496037550671,-0.543223223788894,WALK
3.49,-0.46815685139444,0.143165934179474,-0.542056651091935,4.9242697781615,-0.872466339424989,-3.73488010345376,-0.605227232883787,-0.844083441453845,-0.0721152709299121,8.65413103604358,-1.0100039815402,-3.80361546769664,-0.192537735433869,0.167489212844676,0.0272666278509539,9.16593790966971,0.0793072820513635,-0.469409725990044,WALK
3.5,-0.526688724092341,-0.0969217984595743,-0.447052914212439,4.97656771221721,-1.18345223563275,-3.73061589031601,-0.535160921233219,-0.828574059899161,-0.0966259590632512,8.76022498617575,-0.802080202390727,-3.51229760166339,-0.092794969495033,0.204329386006394,0.0599851004394495,9.18411301853125,-0.0496952969826164,-0.314138111570665,WALK
3.51,-0.657808518166308,-0.346522757973144,-0.367600917761345,5.16738396463605,-1.42284367121917,-3.7637725549722,-0.499233303363403,-0.815762162315868,-0.114763634430567,8.89177246452304,-0.652884220773902,-3.10165255785279,-0.0059673426650416,0.194460258822877,0.0743644967306662,9.14866904156941,-0.0138996453773842,-0.344004854777052,WALK
3.52,-0.770573433956296,-0.535748620104287,-0.318654181434745,5.32629545367464,-1.38877189801743,-3.69925359085176,-0.455716159473864,-0.811530890733501,-0.127056401118946,9.09092470385335,-0.887000082879029,-2.92845345568357,0.0757829117426716,0.156362921886243,0.0747984546411646,9.1090902533367,0.105267278312314,-0.411152729063956,WALK
3.53,-0.801166098905536,-0.620659260767856,-0.297234084744827,5.48305549066047,-1.43693557186799,-3.28698862470617,-0.396984909330378,-0.810757407806686,-0.132317493307943,9.42728441948972,-1.06861867993259,-2.77396505384887,0.165488734222474,0.124088014715934,0.0672912814741778,8.9931205004999,0.346874124327688,-0.331510692665846,WALK
3.54,-0.826912697055657,-0.684388695239403,-0.207429349290906,5.57910986166329,-1.35338673279452,-2.93974193550769,-0.339972620118759,-0.821671711271144,-0.135758914677196,9.66131392693238,-1.0352059233772,-2.61275671939935,0.204024603333218,0.108461956264812,0.0544071989788101,8.92936244658839,0.591450726231235,-0.341348241071991,WALK
3.55,-0.975900934040977,-0.842926117218208,-0.0689043213090546,5.81304898098858,-1.23170129601793,-2.70199501457886,-0.313037192224494,-0.824218048435277,-0.138450242861975,9.7681028167634,-1.06070614170458,-2.31332515547494,0.221361099494889,0.0928053682823217,0.0432450037973256,8.88795667846577,0.873212537238215,-0.388198630846341,WALK
3.56,-1.18882044497339,-1.0215853872181,0.040243984018543,6.10905882279322,-1.11952684087249,-2.52808438299493,-0.288732889453172,-0.814704508052058,-0.153498581321912,9.79415526858582,-0.813810059788876,-2.08245820508573,0.20257530966173,0.0675601654437978,0.0392572729610396,8.70354634937508,1.23444551601263,-0.62105065572549,WALK
