time,left_angular_velocity_x,left_angular_velocity_y,left_angular_velocity_z,left_linear_acceleration_x,left_linear_acceleration_y,left_linear_acceleration_z,right_angular_velocity_x,right_angular_velocity_y,right_angular_velocity_z,right_linear_acceleration_x,right_linear_acceleration_y,right_linear_acceleration_z,pelvis_angular_velocity_x,pelvis_angular_velocity_y,pelvis_angular_velocity_z,pelvis_linear_acceleration_x,pelvis_linear_acceleration_y,pelvis_linear_acceleration_z,label
0.01,-0.204884713051115,0.186030770185804,0.138245885435804,9.54457215540986,-0.038021628821955,-2.85165327134727,0.0902001065258005,-0.0615526082333441,0.116926409435645,8.82526242586693,1.168806415444,-3.37526541923795,-0.0871682700355742,0.0920068530826411,0.0636604022008992,9.8994459410647,0.585470617363845,0.415647099932426,WALK
0.02,-0.231033740611108,0.209108683986721,0.129469840943751,9.68868556439197,0.144758702998783,-2.85228277096381,0.0579998123179462,-0.0806476997314859,0.126329448913489,8.77998448819367,0.9995868891944,-3.66384077813229,-0.200859864734945,0.148520837680745,0.051117870600593,9.78581769828569,0.399131506500093,0.485836074155232,WALK
0.03,-0.235694042322414,0.216931309507693,0.121802892699711,9.81120612218613,0.136293984842279,-2.79429811999535,0.0515755561988147,-0.0807821104582833,0.135678639656352,8.84475685119354,0.869206429083032,-3.75491031193767,-0.200859864734945,0.148520837680745,0.051117870600593,9.78581769828569,0.399131506500093,0.485836074155232,WALK
0.04,-0.230893840681433,0.222746817720042,0.114538289036122,9.77605863056111,0.0318759251831686,-2.81157360228734,0.0281119687348972,-0.0836100484670943,0.149848652574277,8.7818534719315,0.763974737144426,-3.60463836702209,-0.200859864734945,0.148520837680745,0.051117870600593,9.78581769828569,0.399131506500093,0.485836074155232,WALK
0.05,-0.224334371825104,0.224236135974332,0.115163379582616,9.71716130913333,-0.0877740426499354,-2.91594944498919,0.0047954032103912,-0.108724778849518,0.158293645033712,8.73845100804893,0.744722481885757,-3.55280005896962,-0.231357679290727,0.141204312645309,0.0045759052075009,9.74292566761685,-0.0160579127922083,0.510097007587492,WALK
0.06,-0.202165822195483,0.232680094384051,0.121090402927594,9.66713188856484,-0.221343077282101,-2.89015784286356,-0.0129281712502467,-0.121378648014065,0.161241860252094,8.8159109320846,0.806683927117841,-3.62022621639565,-0.214054906108831,0.137358247236684,0.0087054463085187,9.76329538310437,-0.021272134254396,0.597817746305309,WALK
0.07,-0.183342511690279,0.248752568765591,0.13084306192561,9.60020306141191,-0.352017836202315,-2.81215960697419,-0.0183130471757797,-0.116085900676997,0.174616110564245,8.84356862955652,1.01119952719286,-3.62128108279839,-0.189189712507024,0.134729300017263,0.0163994161292134,9.77751429247334,0.0705822281478211,0.579206438666612,WALK
0.08,-0.185676017740969,0.274513661301238,0.136282987713424,9.57789640905624,-0.43604957186495,-2.62986823141123,-0.0393225214059605,-0.120986221894346,0.184941056848596,8.90793884957207,1.07021923562209,-3.66885135389209,-0.147839720133455,0.130706967482518,0.0217828242959566,9.76962413529998,0.152241972138508,0.558366640273151,WALK
0.09,-0.193562871136633,0.29862784199904,0.146134245512662,9.63995165729236,-0.37306789865133,-2.45214806572554,-0.0398587433521958,-0.117922289269299,0.192880574795089,8.88091486248754,0.998257373280414,-3.61172855077538,-0.147839720133455,0.130706967482518,0.0217828242959566,9.76962413529998,0.152241972138508,0.558366640273151,WALK
0.1,-0.235767142130137,0.339677607824746,0.157189656316835,9.77448064339235,-0.25962062183494,-2.25043809336805,-0.0415223002718483,-0.128613788553291,0.18501759409226,8.72496407123913,0.773596942449595,-3.62418993384502,-0.147839720133455,0.130706967482518,0.0217828242959566,9.76962413529998,0.152241972138508,0.558366640273151,WALK
0.11,-0.28315610340802,0.398182979256045,0.148275837889411,9.87190989079223,-0.0873514705925231,-2.00176495352983,-0.0666541144077104,-0.154039469633974,0.163604710738877,8.77615671333419,0.701225269526713,-3.78066637983128,-0.147839720133455,0.130706967482518,0.0217828242959566,9.76962413529998,0.152241972138508,0.558366640273151,WALK
0.12,-0.313797824491378,0.466016239081234,0.129965697958884,9.97360521994968,0.103218042889435,-1.6061005408771,-0.0732489882388335,-0.164648016884116,0.139570222326483,8.82655942141656,0.577949074004386,-4.08973482390277,-0.0622101396913907,0.157509015292301,0.0435332808819334,9.7349499554547,0.448434521361732,0.728015901705366,WALK
0.13,-0.342007233703666,0.552087179967983,0.0960314407249915,10.0487666907624,0.170403514163283,-1.07317632563853,-0.0241116059007525,-0.163001020199173,0.114874299443395,8.62157831798966,0.331164058629339,-4.22569952632698,0.0245487707240885,0.179569063862712,0.0701347248714624,9.6709623521592,0.793855927180769,0.793215355873897,WALK
0.14,-0.370605381434413,0.659957149430937,0.046750439962438,10.1104813871958,0.144111509549901,-0.444854248458678,0.0472133715556744,-0.215114972038832,0.0757536483605709,8.45246195946529,-0.0868189100929022,-4.62118307911228,0.0245487707240885,0.179569063862712,0.0701347248714624,9.6709623521592,0.793855927180769,0.793215355873897,WALK
0.15,-0.416313913924608,0.784743467896023,-0.0048858236496887,10.2355149164863,-0.0201637535821696,0.125513554935726,0.157624236453227,-0.228513562820665,0.0660900897804019,8.67789558216289,-0.587000476523825,-4.70252566507794,0.0196414755940129,0.208041659867717,0.0916809872154791,9.85969555515645,0.753278093975287,0.899079040792073,WALK
0.16,-0.431534422919064,0.905876323554173,-0.0452878077583353,10.7935489274588,-0.388546629139486,0.687192111918823,0.213319719179316,-0.229729195899019,0.0859329382346471,8.74073203697535,-0.75489486146362,-4.74232951006963,-0.0628502678702681,0.172791459089761,0.0958717876356777,10.2858160386415,0.398328920936817,0.822595997650266,WALK
0.17,-0.405576139822199,1.03846701700736,-0.0746210195839468,11.3323579250129,-0.708763402528571,1.0292015969628,0.25950191971008,-0.245634438710237,0.0976370585548178,8.72250514934176,-0.78061204406792,-4.70743579084776,0.0452188746150328,0.199618167086437,0.0954006714488153,10.4290639393749,0.10405941989359,0.668556794212347,WALK
0.18,-0.33233638153018,1.13818878529846,-0.10078400923859,11.8543628374308,-1.03213702647029,1.15439806289407,0.25950191971008,-0.245634438710237,0.0976370585548178,8.72250514934176,-0.78061204406792,-4.70743579084776,0.0452188746150328,0.199618167086437,0.0954006714488153,10.4290639393749,0.10405941989359,0.668556794212347,WALK
0.19,-0.253130243018485,1.24579612777509,-0.101455421569333,12.681772311429,-1.25340291888586,1.21142508499916,0.25950191971008,-0.245634438710237,0.0976370585548178,8.72250514934176,-0.78061204406792,-4.70743579084776,0.0452188746150328,0.199618167086437,0.0954006714488153,10.4290639393749,0.10405941989359,0.668556794212347,WALK
0.2,-0.173714767162933,1.37271446648298,-0.109382743127819,13.1687163464394,-1.17750877168368,1.26508056032061,0.25950191971008,-0.245634438710237,0.0976370585548178,8.72250514934176,-0.78061204406792,-4.70743579084776,0.0452188746150328,0.199618167086437,0.0954006714488153,10.4290639393749,0.10405941989359,0.668556794212347,WALK
0.21,-0.0985220110626673,1.5131946535778,-0.143205931235234,13.5052471625697,-0.768137433494372,1.48595091430783,0.288534974378028,-0.246455284175451,0.115786036230009,8.5568183470059,-0.733052284889109,-4.38943724283304,0.290581335227147,0.228268341232602,-0.0083043584832731,10.2477915406859,0.241494549242243,0.779647392626471,WALK
0.22,-0.0328505627641873,1.67978361994817,-0.200772106184509,13.8481443933376,-0.193637774478737,2.07611438279832,0.257206270845087,-0.25536386974115,0.0832337460417615,8.81455372600544,-0.574167764297991,-3.96185646882942,0.290581335227147,0.228268341232602,-0.0083043584832731,10.2477915406859,0.241494549242243,0.779647392626471,WALK
0.23,0.108678156221842,1.93883324311463,-0.32679044506856,14.0990575288433,0.370111611531776,2.84590249056874,0.238436411832365,-0.220340429793615,0.0388731341894043,9.40106988525235,-0.304799185228813,-3.6390872902808,0.290581335227147,0.228268341232602,-0.0083043584832731,10.2477915406859,0.241494549242243,0.779647392626471,WALK
0.24,0.366903705034508,2.10603001702594,-0.453031041431886,13.0621049420992,0.653374239207488,1.99742188553591,0.238436411832365,-0.220340429793615,0.0388731341894043,9.40106988525235,-0.304799185228813,-3.6390872902808,0.290581335227147,0.228268341232602,-0.0083043584832731,10.2477915406859,0.241494549242243,0.779647392626471,WALK
0.25,0.469226733224765,1.96579077614025,-0.451181567299344,12.2078020021496,-0.628816335650283,0.361909292449012,0.238436411832365,-0.220340429793615,0.0388731341894043,9.40106988525235,-0.304799185228813,-3.6390872902808,0.290581335227147,0.228268341232602,-0.0083043584832731,10.2477915406859,0.241494549242243,0.779647392626471,WALK
0.26,0.229521780466883,2.02649194125029,-0.419717745258262,11.936916133139,-2.15759393477868,0.632531032718878,0.216643809830724,-0.188938638533992,0.0013401941381109,9.47178871573311,0.330692666407903,-3.15020336516949,0.651225828979176,0.31316919410431,-0.0134163955952392,9.05548931593195,2.09259855847296,-0.325262925758132,WALK
0.27,0.128619084016511,1.84595755627396,-0.426689202753418,11.0147659091561,-2.33344274548882,0.199036227269625,0.199771804404168,-0.168229509276005,-0.0059800515231991,9.49370171749335,0.661742524554428,-2.71036737064921,0.651225828979176,0.31316919410431,-0.0134163955952392,9.05548931593195,2.09259855847296,-0.325262925758132,WALK
0.28,0.133496043388298,1.72902166999208,-0.505399358980851,10.5342410047096,-2.51936796710301,-2.27201996792049,0.149049281934789,-0.18434307173102,0.0048368740319837,9.46167615432699,0.333085637908149,-2.4428356670764,0.651225828979176,0.31316919410431,-0.0134163955952392,9.05548931593195,2.09259855847296,-0.325262925758132,WALK
0.29,0.0747350095472715,1.93875958543035,-0.590114484437065,9.99138421863401,-2.40071657987973,-4.49494491881218,0.027105328438828,-0.227168539437294,0.0287739268522673,9.702526731675,-0.363657709771108,-2.47833944151771,0.443872699043822,0.271291357829011,0.132154576168094,9.50201477725965,2.5292326097779,-0.243481925041185,WALK
0.3,0.0096149562415184,2.05682178796396,-0.657130305660507,8.88772024249812,-0.94457501166657,-5.36455785151937,-0.112313106306105,-0.243718795590889,0.0445781438698929,9.84349987885411,-0.993679989744844,-2.57583215775326,0.295063889452656,0.186697455639838,0.130289083436608,10.1255601209857,2.39398441873106,-0.0349049702095698,WALK
0.31,-0.0558703497295328,1.95163053340311,-0.678654887967087,8.44900673292188,0.401690587883667,-4.85621636014874,-0.112313106306105,-0.243718795590889,0.0445781438698929,9.84349987885411,-0.993679989744844,-2.57583215775326,0.295063889452656,0.186697455639838,0.130289083436608,10.1255601209857,2.39398441873106,-0.0349049702095698,WALK
0.32,-0.205641996681047,1.74854219381995,-0.613026573390032,8.51925447808822,0.37250047093476,-3.76247842702529,-0.112313106306105,-0.243718795590889,0.0445781438698929,9.84349987885411,-0.993679989744844,-2.57583215775326,0.295063889452656,0.186697455639838,0.130289083436608,10.1255601209857,2.39398441873106,-0.0349049702095698,WALK
0.33,-0.39262391311878,1.62823255187857,-0.479646222445375,8.83678844727447,-0.548971991931266,-3.26379921694302,-0.175325422186807,-0.225209399227152,0.0417257269836104,9.65452775595582,-1.1310418138277,-2.99909017380018,0.183939706811783,0.162736801180438,0.0706640148920988,10.7257885579439,2.15248007695953,-0.0146637880010716,WALK
0.34,-0.515692805550938,1.42403702388196,-0.202708552639109,9.27623471740359,-1.48132566734711,-3.51094242822281,-0.21130146288339,-0.189848879652422,0.0349024990715512,9.29688538672507,-0.505357644557719,-3.33839163511703,0.129386931292038,0.197028956397589,-0.0776362188604718,10.6462524524718,1.63672724596786,-0.114158629005082,WALK
0.35,-0.59727473721559,1.0503001018378,-0.0628218943352124,8.85159603429213,-1.77430883630831,-3.25813006278625,-0.21130146288339,-0.189848879652422,0.0349024990715512,9.29688538672507,-0.505357644557719,-3.33839163511703,0.129386931292038,0.197028956397589,-0.0776362188604718,10.6462524524718,1.63672724596786,-0.114158629005082,WALK
0.36,-0.552503594744034,0.759146432620272,-0.0959048007193961,7.54742387726108,-1.96641483247198,-2.80920709182243,-0.228807606291047,-0.179675296338446,0.0317126096365385,9.14831791916961,-0.454813093592686,-3.47303226739191,0.183679255982554,0.225744480669277,-0.185002432325464,9.82992534195866,1.47868686672137,-0.105873052029429,WALK
0.37,-0.371202251037229,0.512106913430305,-0.133963215416968,6.76694327907706,-2.12043549206105,-2.61906251481084,-0.216863610792783,-0.203018679155407,0.0104259013370512,8.93212320365279,-0.65092225512448,-3.6837616231538,0.182306228759004,0.215291949649179,-0.217702512403595,9.56944551703287,1.49363300404973,-0.158313976167342,WALK
0.38,-0.170691361334449,0.34861860417971,-0.146141152055705,6.45324840539769,-1.61296038748132,-2.58207251569849,-0.196078924782444,-0.230324313604862,-0.0344462392089119,8.95620533391057,-0.834225038261341,-4.06004093480491,0.182306228759004,0.215291949649179,-0.217702512403595,9.56944551703287,1.49363300404973,-0.158313976167342,WALK
0.39,-0.0099563454796669,0.230381227466592,-0.134869078935173,6.50859508982857,-1.02261185573421,-2.57476054886707,-0.196078924782444,-0.230324313604862,-0.0344462392089119,8.95620533391057,-0.834225038261341,-4.06004093480491,0.182306228759004,0.215291949649179,-0.217702512403595,9.56944551703287,1.49363300404973,-0.158313976167342,WALK
0.4,0.121880931378221,0.109367405407717,-0.131844043764813,6.73520393587867,-0.676161559412464,-2.55515446638107,-0.196078924782444,-0.230324313604862,-0.0344462392089119,8.95620533391057,-0.834225038261341,-4.06004093480491,0.182306228759004,0.215291949649179,-0.217702512403595,9.56944551703287,1.49363300404973,-0.158313976167342,WALK
0.41,0.191275264939325,-0.0411368803112009,-0.106671163185807,6.97378196545125,-0.520737095386019,-2.30235859505204,-0.136696939669237,-0.237301576372739,-0.090470459188092,9.04282984158108,-1.05910426025032,-4.31854779401688,0.220984971104076,0.203203092118894,-0.209592676935722,9.16617795183916,1.6657076546987,-0.348409391821549,WALK
0.42,0.150249067493096,-0.19532534441393,-0.0813888551829949,7.0783500710447,-0.457504088351921,-1.68455455160223,-0.136696939669237,-0.237301576372739,-0.090470459188092,9.04282984158108,-1.05910426025032,-4.31854779401688,0.259379027842759,0.203450564806536,-0.161759140537173,9.07696099734718,1.96013978176248,-0.303429854159019,WALK
0.43,-0.0174259098680321,-0.330718136350021,-0.0653983223726642,7.11534013312627,-0.370339699008107,-1.14958411819968,-0.136696939669237,-0.237301576372739,-0.090470459188092,9.04282984158108,-1.05910426025032,-4.31854779401688,0.271049975357289,0.188514967931452,-0.0628701407490634,9.17855313933833,2.22152441848323,-0.283851895189277,WALK
0.44,-0.250013422213725,-0.436668260395975,-0.0330773470454497,7.17206403548318,-0.446004708039267,-0.683127561174715,-0.136696939669237,-0.237301576372739,-0.090470459188092,9.04282984158108,-1.05910426025032,-4.31854779401688,0.271049975357289,0.188514967931452,-0.0628701407490634,9.17855313933833,2.22152441848323,-0.283851895189277,WALK
0.45,-0.446061266679096,-0.528548859275288,-0.0001814591739434,7.37637800309654,-0.728508614416016,-0.436330624981881,-0.136696939669237,-0.237301576372739,-0.090470459188092,9.04282984158108,-1.05910426025032,-4.31854779401688,0.271049975357289,0.188514967931452,-0.0628701407490634,9.17855313933833,2.22152441848323,-0.283851895189277,WALK
0.46,-0.446061266679096,-0.528548859275288,-0.0001814591739434,7.37637800309654,-0.728508614416016,-0.436330624981881,-0.136696939669237,-0.237301576372739,-0.090470459188092,9.04282984158108,-1.05910426025032,-4.31854779401688,0.271049975357289,0.188514967931452,-0.0628701407490634,9.17855313933833,2.22152441848323,-0.283851895189277,WALK
0.47,-0.553048860309346,-0.573852446577244,0.0198536974608162,7.81493288447961,-0.889141116019809,-0.402055227053187,0.0808737804642197,-0.192686597872338,-0.155442709227352,9.21895963324929,-1.03723606243375,-3.61551238440615,0.267888685571499,0.175746143426274,0.0550939134623407,9.33643768151885,2.26980193160772,-0.305384735934786,WALK
0.48,-0.52284450028124,-0.582573832165808,0.0096321543133586,8.09415404750629,-0.878004109132638,-0.333455667089442,0.0808737804642197,-0.192686597872338,-0.155442709227352,9.21895963324929,-1.03723606243375,-3.61551238440615,0.277875231946011,0.169775505838418,0.0717484356073569,9.23931987667436,2.19752000216454,-0.210566641889218,WALK
0.49,-0.401317479069586,-0.611775771247269,-0.0201986903991583,8.41504137686252,-0.677024851898318,-0.0047860984795659,-0.0366936709471398,-0.230831619739932,-0.198037821517095,9.04783331365954,-0.288515733628771,-3.25639109130698,0.20043742777574,0.076091568852137,0.0157029769175673,9.14020764981055,2.04414591788531,-0.254806374104451,WALK
0.5,-0.245558356580346,-0.662722563653159,-0.0452714635856114,8.76583673495566,-0.438942291291734,0.522652485951676,-0.180033666164891,-0.27935900214711,-0.216479062534439,9.25341851719313,-0.0540761640797232,-3.25908218350085,0.20043742777574,0.076091568852137,0.0157029769175673,9.14020764981055,2.04414591788531,-0.254806374104451,WALK
0.51,-0.122140790842021,-0.701279927063695,-0.0798471316956715,8.59109331741753,-0.0768724282033736,1.1701454865841,-0.180033666164891,-0.27935900214711,-0.216479062534439,9.25341851719313,-0.0540761640797232,-3.25908218350085,0.20043742777574,0.076091568852137,0.0157029769175673,9.14020764981055,2.04414591788531,-0.254806374104451,WALK
0.52,-0.025114111760767,-0.800916280343461,-0.110597283743387,8.27563281164962,0.0420034569101315,1.60522804908559,-0.180033666164891,-0.27935900214711,-0.216479062534439,9.25341851719313,-0.0540761640797232,-3.25908218350085,0.20043742777574,0.076091568852137,0.0157029769175673,9.14020764981055,2.04414591788531,-0.254806374104451,WALK
0.53,0.0841149807948894,-0.931670385429224,-0.222078890924151,8.11321005405817,-0.557947502447774,1.9675914281838,-0.217931840015869,-0.284403582153534,-0.22294744040159,9.31679314062567,0.059610462949949,-3.23940675977112,0.118207907717037,-0.0388106305715325,-0.0268555643404562,9.16897388257489,2.08291926349506,-0.485790493196705,WALK
0.54,0.141528524185225,-1.05248800954879,-0.349869949729936,8.69232456388278,-1.15229913869703,2.12443480729358,-0.217931840015869,-0.284403582153534,-0.22294744040159,9.31679314062567,0.059610462949949,-3.23940675977112,0.0902789295014648,-0.062841163142219,-0.0331768102157908,9.09586498128155,2.23995125516539,-0.487270933407278,WALK
0.55,0.153524887313782,-1.06163533096435,-0.435445821591235,9.75408132534601,-0.881536795914204,2.47705381392829,-0.217931840015869,-0.284403582153534,-0.22294744040159,9.31679314062567,0.059610462949949,-3.23940675977112,0.0758642940026324,-0.0824918652205312,-0.0247035980615122,9.1249432920917,2.44174126627769,-0.402252344830656,WALK
0.56,0.106814964528853,-0.953107659702098,-0.548784688301986,10.9107897508067,-0.324409245502666,2.72658941481663,-0.217931840015869,-0.284403582153534,-0.22294744040159,9.31679314062567,0.059610462949949,-3.23940675977112,0.0758642940026324,-0.0824918652205312,-0.0247035980615122,9.1249432920917,2.44174126627769,-0.402252344830656,WALK
0.57,0.106814964528853,-0.953107659702098,-0.548784688301986,10.9107897508067,-0.324409245502666,2.72658941481663,-0.217931840015869,-0.284403582153534,-0.22294744040159,9.31679314062567,0.059610462949949,-3.23940675977112,0.0758642940026324,-0.0824918652205312,-0.0247035980615122,9.1249432920917,2.44174126627769,-0.402252344830656,WALK
0.58,0.246753979486136,-0.73220899048105,-0.64208239354309,11.5867039794545,0.446117819792164,3.61162649406623,-0.247461286143932,-0.276825268940218,-0.263759211291557,9.52318647913947,0.0032467395305959,-3.01217872646038,0.0461838223586188,-0.124877393804044,0.0010219663346734,9.13872571903314,2.54332646045206,-0.284662309669983,WALK
0.59,0.516142848340776,-0.706172256943516,-0.45606111623282,10.2633275377993,0.0715534991240393,4.30191041432134,-0.248228318979513,-0.247173761338772,-0.294729637286335,9.58417296821393,-0.363367745890019,-2.84982471270732,0.0084800279795175,-0.182407605978787,0.0358812449202133,9.1592027632764,2.37032932746175,-0.282711412670688,WALK
0.6,0.52031398735981,-0.722726395158087,-0.366191390581225,10.2656578811837,-0.0596253018787963,4.05779341587502,-0.248228318979513,-0.247173761338772,-0.294729637286335,9.58417296821393,-0.363367745890019,-2.84982471270732,0.0084800279795175,-0.182407605978787,0.0358812449202133,9.1592027632764,2.37032932746175,-0.282711412670688,WALK
0.61,0.460249621527785,-0.697847212635565,-0.316071866658051,10.0730767887318,0.16174120646911,3.68361750756998,-0.248228318979513,-0.247173761338772,-0.294729637286335,9.58417296821393,-0.363367745890019,-2.84982471270732,0.0084800279795175,-0.182407605978787,0.0358812449202133,9.1592027632764,2.37032932746175,-0.282711412670688,WALK
0.62,0.460249621527785,-0.697847212635565,-0.316071866658051,10.0730767887318,0.16174120646911,3.68361750756998,-0.248228318979513,-0.247173761338772,-0.294729637286335,9.58417296821393,-0.363367745890019,-2.84982471270732,0.0084800279795175,-0.182407605978787,0.0358812449202133,9.1592027632764,2.37032932746175,-0.282711412670688,WALK
0.63,0.394872090778505,-0.669401560004274,-0.286154758013977,9.83191701232454,0.347349606908375,3.42797186341,-0.191986198983246,-0.16475404174703,-0.29365477625997,9.69657707486187,-0.552402058308215,-2.36539542810028,-0.064534669480698,-0.23714188941362,0.0904125626760509,8.95211724335656,1.72117375676457,-0.294432156069014,WALK
0.64,0.348409189159133,-0.67085496193077,-0.247163283778733,9.7460484621249,0.545613009356539,2.91584430728967,-0.152322833798804,-0.0345324161137123,-0.273428175864228,9.97240976383407,-0.819541825182882,-1.24526565764704,-0.064534669480698,-0.23714188941362,0.0904125626760509,8.95211724335656,1.72117375676457,-0.294432156069014,WALK
0.65,0.281761419393026,-0.690908971405463,-0.185288050250005,9.78282196167916,0.500926410099226,2.16622813751436,-0.152322833798804,-0.0345324161137123,-0.273428175864228,9.97240976383407,-0.819541825182882,-1.24526565764704,-0.064534669480698,-0.23714188941362,0.0904125626760509,8.95211724335656,1.72117375676457,-0.294432156069014,WALK
0.66,0.210629599644768,-0.688974919588115,-0.155502665583227,9.63909116309722,0.993773334592086,1.54971038186964,-0.203908198917975,0.0152279853069421,-0.280328118628601,10.4726510770137,-0.983575346096791,-1.36112951105646,-0.121522937856585,-0.286522859108311,0.0430678367902306,9.74652541299675,1.3764213662547,0.147400287066895,WALK
0.67,0.140321875799298,-0.956232510619114,-0.0848998771702646,9.18199632733738,3.52534367040126,-0.96365597645227,-0.244435196612646,0.0799110347917718,-0.302360266769712,11.4699250616041,-0.895885512168066,-1.79555189870644,-0.10493186610656,-0.234177926215587,-0.118266468798806,11.7022195151898,1.38288675557965,0.566927555853252,WALK
0.68,-0.0098143710879595,-1.20573231834574,-0.0082988144521178,12.2005610596792,4.60966082402337,-6.21024300109277,-0.201099641936917,0.183464053632391,-0.294908489368384,11.9832024464768,-0.750348261513409,-1.8381464308757,-0.10493186610656,-0.234177926215587,-0.118266468798806,11.7022195151898,1.38288675557965,0.566927555853252,WALK
0.69,-0.222420787074913,-0.921116324771563,-0.147297641367574,14.9724080514279,4.95363226747634,-7.18867062500982,-0.201099641936917,0.183464053632391,-0.294908489368384,11.9832024464768,-0.750348261513409,-1.8381464308757,-0.10493186610656,-0.234177926215587,-0.118266468798806,11.7022195151898,1.38288675557965,0.566927555853252,WALK
0.7,-0.608252345222921,-0.237318589819763,-0.192913335142847,14.6265802545103,2.28182201890149,-2.46127767489056,-0.098601372090129,0.334630980229223,-0.269748806190066,12.4264393133476,-0.249032902758832,-1.74328217992856,-0.10493186610656,-0.234177926215587,-0.118266468798806,11.7022195151898,1.38288675557965,0.566927555853252,WALK
0.71,-0.839092376044185,0.0174895823561097,-0.014327984618128,12.9660730077225,-1.48063441077934,2.18871214549611,0.0491940029963691,0.535326224162604,-0.226480955990023,12.3893384450496,0.311927145640164,-1.4219845507064,-0.10493186610656,-0.234177926215587,-0.118266468798806,11.7022195151898,1.38288675557965,0.566927555853252,WALK
0.72,-0.808140021461535,-0.206086950476774,0.16366587594282,11.863674888566,-3.34540186203026,2.19238658831235,0.203220755296466,0.710215872509937,-0.191952408880771,12.0660890757946,0.700206559119108,-0.88940778636376,-0.10493186610656,-0.234177926215587,-0.118266468798806,11.7022195151898,1.38288675557965,0.566927555853252,WALK
0.73,-0.760944851822632,-0.487159777606353,0.265375220270665,10.3590455017535,-4.86915066075823,-0.571880058224438,0.318136218059659,0.879620708855738,-0.159210568773621,12.129551080921,1.20510227112283,-0.589250503384269,-0.10493186610656,-0.234177926215587,-0.118266468798806,11.7022195151898,1.38288675557965,0.566927555853252,WALK
0.74,-0.595800382438532,-0.606418203456683,0.19916604290478,8.14365983034398,-6.6300614841207,-3.41284777594392,0.360231587845794,1.04484984586871,-0.113545566582266,12.0122145638708,1.39109317263569,-0.269044878303088,-0.126011415941364,-0.267890814978026,-0.213304006360228,11.9068478571111,0.919854916400226,1.20126570803109,WALK
0.75,0.100177769536008,-0.727993425762747,0.0236874367442319,6.3968194021538,-4.51413438946966,-4.88704968100099,0.373187470052298,1.25988868210027,-0.0328442102139692,11.924826458822,1.19677932119714,0.438439488655161,-0.263529844104971,-0.274871691127339,-0.11269837259312,9.80406584924001,1.75073346552826,1.25953846179184,WALK
0.76,0.551705089727818,-0.660419055374399,-0.0613303695208807,7.09583369192608,-0.17637360655341,-3.73618980077999,0.355991851511265,1.56259645191865,0.112758344220797,12.0423208048504,1.0595901962979,1.54180744873687,-0.263529844104971,-0.274871691127339,-0.11269837259312,9.80406584924001,1.75073346552826,1.25953846179184,WALK
0.77,0.642045291678451,-0.648865405960622,-0.112597702989039,7.83754117711737,2.06997665875147,-3.17790725548562,0.207822822449554,2.20565473429829,0.366608203761866,12.1833971349196,0.954680573143803,3.0403824442072,-0.381779198064039,-0.247600374994925,0.01235101166446,8.90075763868113,2.23730128425356,1.47825391268814,WALK
0.78,0.68698017271027,-0.720172515685254,-0.12336741337698,9.08745789149611,3.42937633271457,-3.27728776308266,0.0507574017104364,2.34354563147729,0.294261604771407,10.0040986558599,2.81821037112148,1.76680198600637,-0.427598766796463,-0.212076691907035,0.067179917713149,8.71384332593654,2.20845939845466,1.57883847182153,WALK
0.79,0.647254010920772,-0.745240635904421,-0.115781616516677,10.0495359456971,3.66446675913531,-3.2026260163306,0.0369848614933202,2.39312036506525,-0.0262913662262351,10.784108852871,3.45211855712295,0.530205659955045,-0.467239459863185,-0.150164529732918,0.0907396967296773,8.51890613102831,1.79532327488134,1.6412384880917,WALK
0.8,0.49112683549334,-0.704840061636648,-0.0834999095955379,10.4237301787891,3.06707377553711,-3.09813781700605,-0.0048873296877325,2.95090711338036,-0.135005978075085,12.0929066900955,2.45155236091617,-0.855649643536191,-0.49014842763801,-0.0637556312945284,0.0712158779514765,8.44068210688049,1.09970121283782,1.55573689686257,WALK
0.81,0.208235186458157,-0.618275773530972,-0.0257107681495996,10.2239576053482,2.33811631943246,-3.04490194714552,-0.350629656101041,3.23822369209858,0.0120292712449171,12.4777772098513,0.298381808647818,-1.64251207728211,-0.510443681941989,0.0376482231386324,0.018412137344733,8.62548046215065,0.279483152196343,1.56579699760702,WALK
0.82,-0.0260287979887103,-0.542021985634838,0.0283199271503745,9.83995238350618,1.43461775938991,-2.88340628674758,-0.975008024693097,3.00393582721002,0.315265704253138,12.9132598306433,-1.16534559483965,-2.99782280200055,-0.510443681941989,0.0376482231386324,0.018412137344733,8.62548046215065,0.279483152196343,1.56579699760702,WALK
0.83,-0.0260287979887103,-0.542021985634838,0.0283199271503745,9.83995238350618,1.43461775938991,-2.88340628674758,-1.14947288456698,2.66005711742102,0.580794478548796,12.6733598305936,-0.791462237288513,-4.06331242337683,-0.510443681941989,0.0376482231386324,0.018412137344733,8.62548046215065,0.279483152196343,1.56579699760702,WALK
0.84,-0.154965309723798,-0.503506662625725,0.0665714123976483,9.47680188331598,0.488120068761548,-2.56042852328302,-0.901969576923478,2.39339102024442,0.712908698594227,12.3790494227181,-0.350191150505626,-4.66581558303696,-0.510443681941989,0.0376482231386324,0.018412137344733,8.62548046215065,0.279483152196343,1.56579699760702,WALK
0.85,-0.177856916214412,-0.529321916141175,0.0978041114063548,9.27622707886295,-0.0233519208519842,-2.23267975548759,-0.528420282785757,2.33916295258961,0.869240755387114,12.6433274836737,-1.0951381769845,-5.04220873398801,-0.510443681941989,0.0376482231386324,0.018412137344733,8.62548046215065,0.279483152196343,1.56579699760702,WALK
0.86,-0.104531625966933,-0.583218578892138,0.125549599169136,9.48057035708639,-0.390869491340867,-2.12198722883684,-0.17242695215119,2.39112377304045,0.999957119241162,11.9714616177797,-1.0797694454444,-5.55020581267701,-0.510443681941989,0.0376482231386324,0.018412137344733,8.62548046215065,0.279483152196343,1.56579699760702,WALK
0.87,-0.0066332086654933,-0.628334704340698,0.151463688114021,9.70804882836158,-0.132847336513513,-2.47077907925001,0.2532011577522,2.29028600190925,0.965668226755499,11.1034773281721,-0.956798168960918,-6.35930139099452,-0.373814593794066,0.098400583230629,-0.094386289337139,9.8299642703077,-0.662257313766099,1.42289745925103,WALK
0.88,0.0706920327951109,-0.642426830765946,0.16427653646121,9.79462524836434,0.2968957180663,-2.70974815776939,0.412348839833848,2.28399608697268,0.848752452274964,10.1953176928284,-0.466481845800777,-6.0059536986266,-0.160147974659394,0.0084687751799359,0.0070525204732687,9.95562664256447,-0.0587060584948103,1.26851634672584,WALK
0.89,0.096833254900434,-0.627820176341346,0.172752740638407,9.86599445929552,0.536197570442333,-2.89216243374975,0.591635615512893,2.26976481687109,0.77624076701853,10.0967098347972,-0.38321078541507,-5.40764197596331,-0.108593150480627,-0.0233193138170292,0.040157736695098,9.83279538272542,0.260752825265787,1.26160104114569,WALK
0.9,0.180632600888742,-0.597749169021259,0.141395914580915,9.79645030952668,0.47866930181834,-2.75202837798854,0.837888545499526,2.23710921414678,0.679810407177674,9.81198490477971,-0.321472462509189,-4.75697833728192,-0.0544433901168667,-0.0650616613903969,0.0517376218323813,9.70288822685821,0.50753395222921,1.14147150069562,WALK
0.91,0.30206000464269,-0.572769934817569,0.111939515104016,9.66611756811093,0.557705586482599,-2.26574287862432,0.988535223449005,2.23701381872441,0.602708228294397,9.74067442176677,-0.241206868472997,-3.9304430623581,-0.0093833930646246,-0.0849576486360535,0.0552557378773409,9.59356519092312,0.606518928469531,0.97204324983983,WALK
0.92,0.385917025159721,-0.560697413773191,0.0856921310233642,9.58038710599611,0.524681542190056,-2.19888441922171,0.988535223449005,2.23701381872441,0.602708228294397,9.74067442176677,-0.241206868472997,-3.9304430623581,-0.0093833930646246,-0.0849576486360535,0.0552557378773409,9.59356519092312,0.606518928469531,0.97204324983983,WALK
0.93,0.448165551995657,-0.566653502870481,0.0623646232872684,9.40622980967607,0.685669390007838,-2.26586864603007,0.988535223449005,2.23701381872441,0.602708228294397,9.74067442176677,-0.241206868472997,-3.9304430623581,-0.0093833930646246,-0.0849576486360535,0.0552557378773409,9.59356519092312,0.606518928469531,0.97204324983983,WALK
0.94,0.442850923544663,-0.568989887627763,0.0428398066827388,9.3944651156368,0.877638078496854,-2.63302080895521,0.989482365877521,2.15194460173879,0.55567519157521,10.0948255238611,0.325320206734108,-2.54707245327004,0.0131676001412216,-0.0695856181996443,0.0484609521908123,9.736107105227,0.650255912266007,0.857171478185735,WALK
0.95,0.406403343237703,-0.549956219928993,0.0380533594874601,9.47997858992508,1.20597933719971,-2.79928622334593,1.15891050888502,1.83233000409109,0.498013112224455,10.0865997398807,0.266888985669704,-3.04684202873018,-0.002791295973845,-0.0333635417498979,0.076566528210552,10.0210934950403,0.719824151655641,0.712747137040213,WALK
0.96,0.363834844261065,-0.518388605525918,0.0324372078189778,9.37161542607226,1.25355455345559,-2.74845591339967,1.15891050888502,1.83233000409109,0.498013112224455,10.0865997398807,0.266888985669704,-3.04684202873018,-0.002791295973845,-0.0333635417498979,0.076566528210552,10.0210934950403,0.719824151655641,0.712747137040213,WALK
0.97,0.346126189799117,-0.52498029408705,0.0356207448718389,9.06614596502661,1.24674911862024,-2.85876856224379,1.15891050888502,1.83233000409109,0.498013112224455,10.0865997398807,0.266888985669704,-3.04684202873018,-0.002791295973845,-0.0333635417498979,0.076566528210552,10.0210934950403,0.719824151655641,0.712747137040213,WALK
0.98,0.346126189799117,-0.52498029408705,0.0356207448718389,9.06614596502661,1.24674911862024,-2.85876856224379,1.15891050888502,1.83233000409109,0.498013112224455,10.0865997398807,0.266888985669704,-3.04684202873018,-0.002791295973845,-0.0333635417498979,0.076566528210552,10.0210934950403,0.719824151655641,0.712747137040213,WALK
0.99,0.309647847315771,-0.539323159262519,0.045347618510942,8.91441285611037,0.97148662028429,-3.14429288106013,1.32883757748678,1.47071747747631,0.385711274155167,8.3974068967984,0.243331417273297,-3.01821208308857,-0.0589692369419675,0.0122530530673208,0.116219804323619,10.0479639488051,0.721311007755227,0.641309310060823,WALK
1,0.295091012057183,-0.548536537985779,0.0577861634410958,8.91772900248552,0.690014212026347,-3.5115829858247,1.31555025396288,1.18653009722375,0.225060405515642,7.71715245537314,1.36263197466098,-2.78948571580611,-0.125100166416859,0.0567937713992577,0.106590312406465,9.76026658092602,0.697942762627943,0.640239903438713,WALK
1.01,0.285024793259001,-0.54599187013635,0.0729752793520954,9.04710832624144,0.582023770420043,-3.60414150985659,1.31555025396288,1.18653009722375,0.225060405515642,7.71715245537314,1.36263197466098,-2.78948571580611,-0.125100166416859,0.0567937713992577,0.106590312406465,9.76026658092602,0.697942762627943,0.640239903438713,WALK
1.02,0.238476968218614,-0.525374192124235,0.0887593003558607,9.21405336925559,0.452288859166289,-3.72973969241676,1.19736192357378,1.03092888260022,0.150053794985651,7.56508948033491,1.86154244643186,-2.5538023827416,-0.146978096746041,0.077664851291464,0.0651918954798715,9.71453470408324,0.585596601895163,0.637312210471815,WALK
1.03,0.188244526773763,-0.490235888328676,0.0988762451331956,9.33685781269871,0.465225434945907,-3.74321622190995,1.07169637835639,0.93705223647248,0.125524976636347,7.55084401685456,1.87238771736012,-2.42328450466506,-0.162455945975105,0.0732783207979018,0.0396312673263837,9.78397950647236,0.440737477338093,0.69296663650029,WALK
1.04,0.159337341785557,-0.460469207505625,0.0947957859721361,9.28929798206333,0.457247664221356,-3.45415296079648,0.929126571328725,0.827827320148008,0.114412521677921,7.441295667053,2.04158167676451,-2.1683633094648,-0.162455945975105,0.0732783207979018,0.0396312673263837,9.78397950647236,0.440737477338093,0.69296663650029,WALK
1.05,0.192936953489796,-0.459692587521178,0.0857134590460531,9.18272950997208,0.359715486872963,-3.19316052248539,0.755917091102031,0.689526387030904,0.104343205853289,7.22744393105375,2.1797985087619,-2.01695620583258,-0.179423236898351,0.0714506451815468,0.0246420312922977,9.78047514930554,0.351161893483389,0.703422760567762,WALK
1.06,0.251066041350569,-0.475481584806597,0.0813701432896376,9.05161398319081,0.441361983897107,-3.12584906048712,0.564060567068766,0.533660400791058,0.119663425899423,6.83572950144767,2.26594326937548,-2.01747457666928,-0.177842336205634,0.064838479313209,0.0292161971264156,9.7199468603932,0.337297623791191,0.582067109352124,WALK
1.07,0.303873272922098,-0.501504847805702,0.0802165984791969,8.90813368472497,0.539168435581069,-3.18968736929506,0.416330313733746,0.382127248380108,0.140412448046498,6.49197347868763,2.3017978763953,-2.02729063963852,-0.177842336205634,0.064838479313209,0.0292161971264156,9.7199468603932,0.337297623791191,0.582067109352124,WALK
1.08,0.354912402609093,-0.526423944565464,0.070468361818818,8.88742971136388,0.554816352339447,-3.22790244487443,0.321073940995261,0.215681573389257,0.158633232901777,6.18050694132952,2.41015756959012,-2.1663512011017,-0.177842336205634,0.064838479313209,0.0292161971264156,9.7199468603932,0.337297623791191,0.582067109352124,WALK
1.09,0.42777995078346,-0.552209742022897,0.0641438543658235,8.98711413141732,0.383792481012707,-3.3875566766821,0.239485164872796,0.0666543726810294,0.190749060996265,5.88213292327108,2.02735942635791,-2.36514032209274,-0.143821342968386,0.0671011542092529,0.0544406880622004,9.5026528629564,0.358162319048039,0.424613912412541,WALK
1.1,0.495458783390907,-0.570912801215765,0.0725971135293557,9.09035119462162,0.266463781645941,-3.49255490869632,0.0945419412942439,-0.187600279503106,0.282939510512588,5.61247771730039,1.31378425853262,-2.43071922465927,-0.143821342968386,0.0671011542092529,0.0544406880622004,9.5026528629564,0.358162319048039,0.424613912412541,WALK
1.11,0.538234595053888,-0.587163333555935,0.0893839062801716,9.17682968749824,0.153503909941158,-3.63811056325861,-0.0467981944001326,-0.455063330579688,0.372426738477369,5.68215164148277,0.839576704306947,-2.06341505341032,-0.143821342968386,0.0671011542092529,0.0544406880622004,9.5026528629564,0.358162319048039,0.424613912412541,WALK
1.12,0.53887810147667,-0.591445053537816,0.101754827230571,9.18174937537479,0.141737128269413,-3.60703882908149,-0.0467981944001326,-0.455063330579688,0.372426738477369,5.68215164148277,0.839576704306947,-2.06341505341032,-0.143821342968386,0.0671011542092529,0.0544406880622004,9.5026528629564,0.358162319048039,0.424613912412541,WALK
1.13,0.492915744339518,-0.581830050129703,0.129463683633138,9.21603092116865,0.346154902449456,-3.63523007586134,-0.107130193333374,-0.651221830187283,0.359329614216731,5.80691387037302,0.344453477475793,-1.50359903629425,-0.0341338553703329,0.020641242596174,0.0536067660817071,9.07432171942781,0.0871049552620364,-0.0389768338575662,WALK
1.14,0.437021748050834,-0.569786947888493,0.160072096360477,9.3258041388253,0.592904825202959,-3.37650384805479,-0.198763528745638,-0.867161045350743,0.288450743137274,6.07286908267648,-0.188470158290925,-0.996174499492812,0.104273621093347,-0.0037158094800667,0.0096573159236282,9.01971825000831,-0.169936433497879,-0.471499477509316,WALK
1.15,0.387160989495727,-0.555458273246257,0.181460281842992,9.3862380177944,0.602633336363151,-3.05229916794266,-0.306452466963522,-1.105681612706,0.189540769438002,6.49006046004106,-0.538913621171527,-0.757782134538825,0.104273621093347,-0.0037158094800667,0.0096573159236282,9.01971825000831,-0.169936433497879,-0.471499477509316,WALK
1.16,0.343799545040168,-0.541559520070984,0.189594982114408,9.315375354924,0.443748840385228,-2.75087095170343,-0.354022714047289,-1.30755685668253,0.137008079359448,7.74492219889015,-0.698404461950634,-0.0650084077991862,0.134564612792447,-0.0320075641916788,-0.0261622359734609,9.02377605267872,-0.508617843563821,-0.16920227913317,WALK
1.17,0.306806946883404,-0.538803151064237,0.209642850260657,9.1452760866848,0.424170817964607,-2.46951265300153,-0.190400365043323,-1.30699183297289,0.188420119924971,9.40192463138729,-1.10961233383719,1.18864053809056,0.133168672072219,-0.0949355343118962,-0.0361514821337633,9.10858413627798,-0.427863468611123,-0.0518645265255638,WALK
1.18,0.264084383808332,-0.553119898233434,0.23695011814619,9.22967821886674,0.376785075670968,-2.3948599050453,-0.190400365043323,-1.30699183297289,0.188420119924971,9.40192463138729,-1.10961233383719,1.18864053809056,0.133168672072219,-0.0949355343118962,-0.0361514821337633,9.10858413627798,-0.427863468611123,-0.0518645265255638,WALK
1.19,0.227989749616454,-0.545229609270075,0.26387824205693,9.28771120706933,0.510914703092694,-2.3518310005341,-0.0120253507996373,-1.27736696616017,0.233265992420455,11.1667915064095,-1.45123493168404,2.57694115918628,0.143839686467215,-0.133195302570512,-0.0182305877577385,9.19768504419501,-0.136717422837661,-0.0837189266775148,WALK
1.2,0.240808117230099,-0.541653675363975,0.281944696068356,9.2131911735744,0.750188092423569,-2.29186481323901,-0.0120253507996373,-1.27736696616017,0.233265992420455,11.1667915064095,-1.45123493168404,2.57694115918628,0.143839686467215,-0.133195302570512,-0.0182305877577385,9.19768504419501,-0.136717422837661,-0.0837189266775148,WALK
1.21,0.25495372600702,-0.537216755452169,0.303068895859349,9.40435131393925,0.861163471835561,-2.2651994442217,-0.0120253507996373,-1.27736696616017,0.233265992420455,11.1667915064095,-1.45123493168404,2.57694115918628,0.143839686467215,-0.133195302570512,-0.0182305877577385,9.19768504419501,-0.136717422837661,-0.0837189266775148,WALK
1.22,0.269967910327217,-0.516910456870573,0.318211265137923,9.71967897059273,0.801611342264276,-2.31245583184814,-0.0120253507996373,-1.27736696616017,0.233265992420455,11.1667915064095,-1.45123493168404,2.57694115918628,0.143839686467215,-0.133195302570512,-0.0182305877577385,9.19768504419501,-0.136717422837661,-0.0837189266775148,WALK
1.23,0.29688898159757,-0.488755711946264,0.327588212210258,9.92578949990954,0.578476481635928,-2.40362035333162,-0.314900588466084,-1.22614190411666,0.226757284316382,11.4305030233065,-0.22036171476194,4.83817051474907,0.119056607085621,-0.18313668737799,0.0284551222891976,9.62187477306065,0.778665665768208,-0.468001791222656,WALK
1.24,0.337944472201528,-0.452960902284476,0.325021475055155,10.1588841110326,0.1359269202101,-2.4678476198415,-0.457712582349538,-1.05235169782233,-0.0073836035227264,11.9683934231648,0.887547960632999,5.27411755211286,0.0188268528019388,-0.17988338275256,0.00353473667572,9.93451166815968,1.00205452616993,-0.56231460074212,WALK
1.25,0.363302083302932,-0.416061293874573,0.320339033509179,10.1379525301601,-0.288953445794641,-2.38976170974152,-0.457712582349538,-1.05235169782233,-0.0073836035227264,11.9683934231648,0.887547960632999,5.27411755211286,0.0188268528019388,-0.17988338275256,0.00353473667572,9.93451166815968,1.00205452616993,-0.56231460074212,WALK
1.26,0.390761772552745,-0.407183729978859,0.323773560766125,10.0717809758102,-0.102047143121439,-2.44075286563793,-0.146974374269638,-0.875545688376861,0.0036693509798045,12.3874328669248,1.49540535432316,4.62807057867883,-0.0434540492745155,-0.180642017744861,-0.0280393953177919,10.0448591076105,0.853944521613839,-0.500254436082884,WALK
1.27,0.370946233652955,-0.404510646389921,0.337029951450683,10.0644638543781,0.471755195797529,-2.4644855529904,0.138198855330682,-0.661695715349923,0.0659681133019078,12.1823644060316,1.87943816172341,3.23024700330521,-0.10651091185701,-0.200673874034043,-0.0548031891147922,10.1626299314302,0.675621465970321,-0.370057073989925,WALK
1.28,0.355014664878028,-0.372679771374982,0.313479781494909,10.0795476272551,1.03965964506343,-2.45322845683704,0.280099986180271,-0.517925541412702,0.156901044636922,11.5219320858584,1.72609115485024,1.53308669697287,-0.149256052479561,-0.227155870748011,-0.0697744868144793,10.155614498351,0.474689521762446,-0.473842822171295,WALK
1.29,0.364093274054599,-0.328124618873802,0.296488373281529,9.94053688824043,1.30786552777704,-2.48313948534455,0.280099986180271,-0.517925541412702,0.156901044636922,11.5219320858584,1.72609115485024,1.53308669697287,-0.149256052479561,-0.227155870748011,-0.0697744868144793,10.155614498351,0.474689521762446,-0.473842822171295,WALK
1.3,0.355451269873904,-0.286356987392685,0.280178105125587,10.0356486366711,1.1790007612327,-2.64650963904131,0.280099986180271,-0.517925541412702,0.156901044636922,11.5219320858584,1.72609115485024,1.53308669697287,-0.149256052479561,-0.227155870748011,-0.0697744868144793,10.155614498351,0.474689521762446,-0.473842822171295,WALK
1.31,0.355451269873904,-0.286356987392685,0.280178105125587,10.0356486366711,1.1790007612327,-2.64650963904131,0.280099986180271,-0.517925541412702,0.156901044636922,11.5219320858584,1.72609115485024,1.53308669697287,-0.149256052479561,-0.227155870748011,-0.0697744868144793,10.155614498351,0.474689521762446,-0.473842822171295,WALK
1.32,0.305275514902617,-0.209022182946749,0.268650346989215,10.1228017055663,1.13757881895218,-2.62518065867423,-0.138130393739829,-1.03560668962197,0.240585716122528,10.511090348274,-2.21509727739307,-2.68155746020979,-0.151903172843913,-0.220633222550124,-0.0804263321260073,10.1559905940293,0.376105990335329,-0.315115527606492,WALK
1.33,0.300341420561773,-0.141058655615468,0.249480393553477,10.2728085238767,1.13978812915884,-2.52383833823186,-0.138130393739829,-1.03560668962197,0.240585716122528,10.511090348274,-2.21509727739307,-2.68155746020979,-0.151903172843913,-0.220633222550124,-0.0804263321260073,10.1559905940293,0.376105990335329,-0.315115527606492,WALK
1.34,0.316585186047567,-0.08337340932766,0.223949200455675,10.6434676849352,1.26967579895516,-2.55071875110065,-0.138130393739829,-1.03560668962197,0.240585716122528,10.511090348274,-2.21509727739307,-2.68155746020979,-0.151903172843913,-0.220633222550124,-0.0804263321260073,10.1559905940293,0.376105990335329,-0.315115527606492,WALK
1.35,0.31317195293775,0.00281961986497,0.191152956372181,11.205052586254,1.37756776196678,-2.22342206690735,-0.138130393739829,-1.03560668962197,0.240585716122528,10.511090348274,-2.21509727739307,-2.68155746020979,-0.151903172843913,-0.220633222550124,-0.0804263321260073,10.1559905940293,0.376105990335329,-0.315115527606492,WALK
1.36,0.256052827239338,0.126699009062426,0.121248449239503,11.3825239114502,1.35453173397369,-1.352313103269,-0.138130393739829,-1.03560668962197,0.240585716122528,10.511090348274,-2.21509727739307,-2.68155746020979,-0.151903172843913,-0.220633222550124,-0.0804263321260073,10.1559905940293,0.376105990335329,-0.315115527606492,WALK
1.37,0.176414351619297,0.267124387968504,0.0569043926201079,11.5550728046363,1.23144705603359,-0.148552457046448,-1.04627805407217,-1.15488466199352,-0.0278406280006487,16.7845678157304,-4.8914066492494,-1.41957611831017,-0.213803984079381,-0.287056972735458,0.0535951800700454,11.2910096211115,0.650663243915425,0.275328167135881,WALK
1.38,0.0974914730833387,0.440987007721858,0.0125496449221979,11.7866478741344,0.934591318305134,0.854964537932704,0.6840118326438,-0.416945696049413,-0.111948849575891,12.7009746477794,-0.0736119652806697,4.54905121491872,-0.292356820613036,-0.380003808291834,0.296224870886275,11.0288205011581,0.17664685148963,1.53424129873827,WALK
1.39,0.121273284651422,0.628692104423634,-0.0430324607688677,11.6282722086542,0.407995334760459,0.983093272375243,0.6840118326438,-0.416945696049413,-0.111948849575891,12.7009746477794,-0.0736119652806697,4.54905121491872,-0.292356820613036,-0.380003808291834,0.296224870886275,11.0288205011581,0.17664685148963,1.53424129873827,WALK
1.4,0.22816015400894,0.79054050193688,-0.0940792531603587,11.1854842217279,-0.221065661626735,0.789185331647213,0.6840118326438,-0.416945696049413,-0.111948849575891,12.7009746477794,-0.0736119652806697,4.54905121491872,-0.292356820613036,-0.380003808291834,0.296224870886275,11.0288205011581,0.17664685148963,1.53424129873827,WALK
1.41,0.300670712945393,0.914080465629,-0.105875685320582,11.8137785563572,-0.900659291180878,0.626245045833893,0.6840118326438,-0.416945696049413,-0.111948849575891,12.7009746477794,-0.0736119652806697,4.54905121491872,-0.292356820613036,-0.380003808291834,0.296224870886275,11.0288205011581,0.17664685148963,1.53424129873827,WALK
1.42,0.279179436086814,1.0829495949686,-0.0930738934188505,12.2868677440648,-1.30888878253934,0.998473177979853,0.732391464576666,-0.946302380131274,-0.417512238940906,7.40737993488337,3.64675861089178,-3.86907385239888,-0.0466667566098481,-0.338568314415182,0.330705094328424,9.69013394710892,-0.42384980561105,0.933090169763266,WALK
1.43,0.175099785096094,1.30374690967619,-0.0864591307722725,12.7002870202687,-1.27658260828465,2.39295512907074,0.1118699940112,-0.779123136776177,-0.0898519946956473,7.22936279051867,3.27478447767059,-0.760512218425345,-0.0466667566098481,-0.338568314415182,0.330705094328424,9.69013394710892,-0.42384980561105,0.933090169763266,WALK
1.44,-0.0968912374509949,1.59825965513364,-0.0764336897178122,13.3069118478027,-1.38478626049193,3.80293854716388,0.1118699940112,-0.779123136776177,-0.0898519946956473,7.22936279051867,3.27478447767059,-0.760512218425345,-0.0466667566098481,-0.338568314415182,0.330705094328424,9.69013394710892,-0.42384980561105,0.933090169763266,WALK
1.45,-0.0989966299591151,2.29886663849349,-0.192578051008844,13.1887696095668,-2.18470031124091,4.69185942563635,0.1118699940112,-0.779123136776177,-0.0898519946956473,7.22936279051867,3.27478447767059,-0.760512218425345,-0.0466667566098481,-0.338568314415182,0.330705094328424,9.69013394710892,-0.42384980561105,0.933090169763266,WALK
1.46,0.0636939871120301,2.61281637321305,-0.0629642021654761,12.1412439774505,-4.86783260418781,3.05523454793957,-0.537609012608394,-0.863916805961971,0.172962533224873,8.11422608637533,0.700682377353888,-1.59830935327706,0.482797775813568,-0.196895849581042,0.168170340492669,8.82681555213099,-0.850592610182726,1.45488748534318,WALK
1.47,-0.0043933491027883,3.00941742292541,0.144982675766712,12.3798298238686,-3.84845583150964,0.388686226119626,-1.15113819122603,-1.09157473135758,0.209412578494448,9.54756853796858,-2.44157878019356,-1.96007591626196,0.482797775813568,-0.196895849581042,0.168170340492669,8.82681555213099,-0.850592610182726,1.45488748534318,WALK
1.48,0.412987717144909,2.89979107025018,0.077950441205221,11.6034609092822,-0.63190695087449,-2.49417765545669,-1.08523053607474,-1.06345802551314,0.133066334422508,9.77461368675712,-3.00722058096998,-3.34374266433111,0.686113354718806,0.0398832892587434,0.243694790415688,9.05723062760306,2.17531852233645,1.17050338010306,WALK
1.49,0.920171910816736,2.85251870659353,-0.210729794268162,11.7794588367197,0.631324481017305,-2.94391045089004,-0.852706079174915,-0.996760330780807,0.0255869965798856,10.1081436496295,-2.79922682368576,-4.44953078376335,0.686113354718806,0.0398832892587434,0.243694790415688,9.05723062760306,2.17531852233645,1.17050338010306,WALK
1.5,1.10072507299104,2.918751821566,-0.540477044288139,11.3991058253776,-0.672113351152501,-2.8622796147889,-0.216852643246808,-0.810004687469549,-0.0998349856043282,10.5340592097062,-2.92188496164513,-4.04758531219715,0.686113354718806,0.0398832892587434,0.243694790415688,9.05723062760306,2.17531852233645,1.17050338010306,WALK
1.51,0.932046477934499,2.90681699986085,-0.784577456410917,10.8920534669108,0.033012794539925,-3.06716285292603,0.292208019200393,-0.684911021569945,-0.170912685057515,9.78371885837919,-2.68891357581564,-2.91855039165053,0.686113354718806,0.0398832892587434,0.243694790415688,9.05723062760306,2.17531852233645,1.17050338010306,WALK
1.52,0.875813046016867,2.76660400118441,-0.980799386093564,10.6303857601592,2.53835427626497,-5.22419560498573,0.264059885196372,-0.724766226291384,-0.221050001474603,9.06240126104381,-2.21554717952209,-2.99764287694558,0.543594497627378,0.081225425517541,0.441843264828753,10.5687051682221,3.35956058811137,0.723862817880416,WALK
1.53,1.00364606646246,2.52193682978512,-1.27704589952727,11.8772581201756,5.08347574331709,-7.45178659610096,0.161827385576763,-0.760414909643736,-0.253102796315073,8.83533635463005,-1.84931172305153,-3.53495807703242,0.422450793849436,0.0564570556228714,0.416984003040895,10.4855699333004,2.96118216875835,0.721448786543544,WALK
1.54,1.0010795526433,2.49203986406482,-1.41012258359854,13.4244523742604,4.65659684367729,-7.53982810032352,0.161827385576763,-0.760414909643736,-0.253102796315073,8.83533635463005,-1.84931172305153,-3.53495807703242,0.279778703843703,0.0208898735801589,0.339324194206235,10.3904777343547,2.26420526758213,0.588926915389006,WALK
1.55,0.436625675308803,2.59163906596529,-1.33395388178117,13.3793228840362,3.22373720201527,-6.87162448146552,0.161827385576763,-0.760414909643736,-0.253102796315073,8.83533635463005,-1.84931172305153,-3.53495807703242,0.279778703843703,0.0208898735801589,0.339324194206235,10.3904777343547,2.26420526758213,0.588926915389006,WALK
1.56,-0.218490687760153,2.61781537098405,-1.18550889742508,12.8837782952437,2.03018188717388,-6.10419240407236,0.199791596170095,-0.760534393997803,-0.209133634553317,8.7896783947594,-1.04022470066801,-3.79599323159664,0.111902623494795,-0.0319213386921925,0.214588265422222,10.3216066378277,1.31092448848561,0.488622441740253,WALK
1.57,-0.785503554526916,2.64778826576033,-1.01028312256531,12.3215070249263,1.92271520896869,-5.43673240267988,0.0412522934703448,-0.765314058655779,-0.145233070030262,9.29266384715357,0.114771274688565,-3.41950149143764,0.0187393275636522,-0.0009754902941874,0.0136316497451255,10.4071033869196,0.621152427934373,0.297248980213423,WALK
1.58,-1.39887834577074,2.59696278936058,-0.862538231091437,11.1420875121511,2.00767065949362,-4.62271733857974,-0.248125146759684,-0.764187683244559,-0.0879782337125901,10.1150957668596,-0.273158190065286,-2.94302528382447,0.0187393275636522,-0.0009754902941874,0.0136316497451255,10.4071033869196,0.621152427934373,0.297248980213423,WALK
1.59,-1.87560976951429,2.35385955457111,-0.799373834491486,11.013065095068,1.47869902598797,-4.78485093287049,-0.248125146759684,-0.764187683244559,-0.0879782337125901,10.1150957668596,-0.273158190065286,-2.94302528382447,0.0187393275636522,-0.0009754902941874,0.0136316497451255,10.4071033869196,0.621152427934373,0.297248980213423,WALK
1.6,-1.93583199684182,2.16222591199522,-0.744084605479481,10.5850676045794,0.568014646815664,-4.43655621119159,-0.311102368759072,-0.737077970636121,0.0012745889389643,9.99806819645885,0.0480673103448924,-2.16405145689841,0.0269203544591025,0.0357236237174157,-0.126274690400419,10.5012284638423,0.79484822621674,0.195783791780806,WALK
1.61,-1.7087717177048,1.96998003347069,-0.623790416815027,10.1467234752799,-0.811305779507282,-3.92591169740609,-0.41112748841785,-0.692031056877439,0.0275438521963475,9.54973758181252,0.0080940951167867,-1.88756110199731,0.0453920956887559,0.0451021407690662,-0.145989118606437,10.1155209135723,1.41684372006396,0.159927232805977,WALK
1.62,-1.39067661916194,1.75487231229589,-0.491043397740723,9.7517972580852,-1.48715097731323,-3.90416930756571,-0.41112748841785,-0.692031056877439,0.0275438521963475,9.54973758181252,0.0080940951167867,-1.88756110199731,0.0453920956887559,0.0451021407690662,-0.145989118606437,10.1155209135723,1.41684372006396,0.159927232805977,WALK
1.63,-1.15290359175364,1.57458784457944,-0.445927020472371,8.94129387387863,-1.79909755610575,-3.58768651910455,-0.41112748841785,-0.692031056877439,0.0275438521963475,9.54973758181252,0.0080940951167867,-1.88756110199731,0.0453920956887559,0.0451021407690662,-0.145989118606437,10.1155209135723,1.41684372006396,0.159927232805977,WALK
1.64,-1.02058906399858,1.37341565822775,-0.490365467025306,8.19998592785651,-1.73278186973556,-3.31684673896469,-0.504753615453245,-0.661147456798518,0.0222312322483806,9.34010749689668,-0.357437390564801,-1.7323359252234,0.0292351675982141,0.0725408948406966,-0.134557947187778,9.64075264099894,1.66856305384491,0.22998240569288,WALK
1.65,-0.945277292542189,1.13672138139755,-0.539987397816159,7.604112075298,-1.53440086867941,-3.27145168706344,-0.545963643111511,-0.626562040598373,0.0129758489794708,9.30694606151943,-0.593982011661907,-1.72886263868493,-0.0050122530882463,0.0873825453775597,-0.121887105000705,9.33496699258286,1.72207272864667,0.217446638308327,WALK
1.66,-0.855140807459702,0.944857496335302,-0.542429754137701,7.21226103557032,-1.307514897188,-3.33799442624229,-0.545963643111511,-0.626562040598373,0.0129758489794708,9.30694606151943,-0.593982011661907,-1.72886263868493,-0.0289646236728491,0.109485001712146,-0.107904850026291,9.17379527208219,1.68424686854293,0.0985415709451698,WALK
1.67,-0.766833169296977,0.797237818125118,-0.51555426086577,6.97567102154006,-0.992613961659387,-3.28122108664937,-0.545963643111511,-0.626562040598373,0.0129758489794708,9.30694606151943,-0.593982011661907,-1.72886263868493,-0.0289646236728491,0.109485001712146,-0.107904850026291,9.17379527208219,1.68424686854293,0.0985415709451698,WALK
1.68,-0.756009072532698,0.655092181404068,-0.454881678939698,6.83567979854462,-1.03232346071238,-3.26461737152988,-0.518155384255554,-0.578074906900938,-0.0215166762814589,8.87128940967326,-1.11447787495422,-2.9577980495404,-0.118735552889772,0.0963778109281538,-0.0893599216056251,9.15844562717823,1.2596218026956,0.17300571451141,WALK
1.69,-0.852428608771353,0.525285033584316,-0.393981242515735,6.6831365329372,-1.3341158974469,-3.36207191886905,-0.412291201947769,-0.572266236334539,-0.0554854063042195,9.0064132860415,-1.68396556506103,-3.74354598640472,-0.111583708620556,-0.0024951628966346,-0.090046400317235,9.29193905766986,0.782510843678081,-0.182696519632852,WALK
1.7,-0.9627282012858,0.406013743135379,-0.347698647860844,6.58126491715458,-1.76046256962046,-3.41095337409542,-0.412291201947769,-0.572266236334539,-0.0554854063042195,9.0064132860415,-1.68396556506103,-3.74354598640472,-0.111583708620556,-0.0024951628966346,-0.090046400317235,9.29193905766986,0.782510843678081,-0.182696519632852,WALK
1.71,-1.04778463262506,0.292149324760743,-0.308185095195876,6.57097107944922,-2.14296188073362,-3.36823819615656,-0.412291201947769,-0.572266236334539,-0.0554854063042195,9.0064132860415,-1.68396556506103,-3.74354598640472,-0.111583708620556,-0.0024951628966346,-0.090046400317235,9.29193905766986,0.782510843678081,-0.182696519632852,WALK
1.72,-1.08567000116079,0.176058261626016,-0.323618194524587,6.74815331410917,-2.62645566154187,-3.10795448742235,-0.412291201947769,-0.572266236334539,-0.0554854063042195,9.0064132860415,-1.68396556506103,-3.74354598640472,-0.111583708620556,-0.0024951628966346,-0.090046400317235,9.29193905766986,0.782510843678081,-0.182696519632852,WALK
1.73,-1.03759291648487,0.0785169849642825,-0.354789671317277,6.74601670703829,-2.79485634285973,-2.71758505299855,-0.254321483218065,-0.560764451502028,-0.0810364289058924,9.10222509083287,-1.27320534167112,-3.66243000893414,0.0108230476789183,0.0317536600913428,-0.0855070125899597,9.28417374595415,0.645277044271008,-0.400949090683861,WALK
1.74,-0.87867602692883,-0.0245643301914763,-0.364869715229036,6.84458954803387,-2.51670548113836,-2.40220475719932,-0.109191470286841,-0.577418118820564,-0.108573669880546,9.15964922782903,-1.03291930996959,-3.10865106502797,0.0638908289287802,0.0747781231825932,-0.0526203093473229,9.30404300712356,0.728070947907391,-0.303301772051971,WALK
1.75,-0.54604856828591,-0.175762230020603,-0.332817462465295,6.79144633056768,-1.42427034135746,-1.79022166944775,-0.063992640914195,-0.588744397570886,-0.12826796539266,9.19107176428484,-0.759994399252364,-3.0479048994676,0.0606589887777041,0.0769122292546644,-0.0301438776377069,9.34756878305008,0.936872371128344,-0.416895348791839,WALK
1.76,-0.336807252907063,-0.312129185815594,-0.34466446308075,6.67740874360953,0.0094737363333964,-1.24466744926685,-0.063992640914195,-0.588744397570886,-0.12826796539266,9.19107176428484,-0.759994399252364,-3.0479048994676,0.0606589887777041,0.0769122292546644,-0.0301438776377069,9.34756878305008,0.936872371128344,-0.416895348791839,WALK
1.77,-0.307627264389638,-0.43415247365029,-0.333538488438549,6.97661210617854,0.552121834471761,-0.988646941852866,-0.063992640914195,-0.588744397570886,-0.12826796539266,9.19107176428484,-0.759994399252364,-3.0479048994676,0.0606589887777041,0.0769122292546644,-0.0301438776377069,9.34756878305008,0.936872371128344,-0.416895348791839,WALK
1.78,-0.387425400346251,-0.58009405941784,-0.314795400172,7.33194361534834,0.997966295995373,-0.58515056181452,-0.063992640914195,-0.588744397570886,-0.12826796539266,9.19107176428484,-0.759994399252364,-3.0479048994676,0.0606589887777041,0.0769122292546644,-0.0301438776377069,9.34756878305008,0.936872371128344,-0.416895348791839,WALK
1.79,-0.552121757418181,-0.821197478170519,-0.269894609898705,7.9953720093995,0.314682576582334,0.117483834844544,-0.063992640914195,-0.588744397570886,-0.12826796539266,9.19107176428484,-0.759994399252364,-3.0479048994676,0.0606589887777041,0.0769122292546644,-0.0301438776377069,9.34756878305008,0.936872371128344,-0.416895348791839,WALK
1.8,-0.552121757418181,-0.821197478170519,-0.269894609898705,7.9953720093995,0.314682576582334,0.117483834844544,-0.063992640914195,-0.588744397570886,-0.12826796539266,9.19107176428484,-0.759994399252364,-3.0479048994676,0.0606589887777041,0.0769122292546644,-0.0301438776377069,9.34756878305008,0.936872371128344,-0.416895348791839,WALK
1.81,-0.552121757418181,-0.821197478170519,-0.269894609898705,7.9953720093995,0.314682576582334,0.117483834844544,-0.063992640914195,-0.588744397570886,-0.12826796539266,9.19107176428484,-0.759994399252364,-3.0479048994676,0.0606589887777041,0.0769122292546644,-0.0301438776377069,9.34756878305008,0.936872371128344,-0.416895348791839,WALK
1.82,-0.591508375134943,-0.954455869342039,-0.180963069168091,9.13449176000305,-0.371813057627035,0.404377708191434,-0.0425771186786178,-0.555157592595499,-0.162978562054383,9.38509082669658,-0.325474074245946,-2.6175408345473,0.0365853970882723,0.0606057203159151,0.0017384237629465,9.1784783479802,1.4478477641884,-0.176964239958112,WALK
1.83,-0.571312791327832,-0.957010241261038,-0.090981538634357,9.62071250004122,-0.344666975100068,0.829792278975087,-0.126046095971278,-0.53019010908063,-0.154849775779994,9.54086548393927,-0.229834565986118,-2.3890841205144,0.0365853970882723,0.0606057203159151,0.0017384237629465,9.1784783479802,1.4478477641884,-0.176964239958112,WALK
1.84,-0.476360087069593,-0.930607391347925,-0.0168035077667018,9.89115221000972,-0.330811198798175,1.75695687903117,-0.126046095971278,-0.53019010908063,-0.154849775779994,9.54086548393927,-0.229834565986118,-2.3890841205144,0.0365853970882723,0.0606057203159151,0.0017384237629465,9.1784783479802,1.4478477641884,-0.176964239958112,WALK
1.85,-0.384720184544593,-0.853315832898705,0.0294498032763736,10.242058205777,-0.304730353768388,2.90587132373465,-0.126046095971278,-0.53019010908063,-0.154849775779994,9.54086548393927,-0.229834565986118,-2.3890841205144,0.0365853970882723,0.0606057203159151,0.0017384237629465,9.1784783479802,1.4478477641884,-0.176964239958112,WALK
1.86,-0.323621853298561,-0.731753570615898,-0.0041641212647284,10.5150530362879,-0.126653942440718,3.82674492443006,-0.277119977932964,-0.507301592942254,-0.100921972256057,9.52699872527732,-0.320604158672972,-2.34715129583315,-0.120820030448948,-0.122975332549104,-0.006762325827038,9.15983513737357,1.28447734219363,-0.798885549213329,WALK
1.87,-0.300201492385013,-0.654027921415402,-0.0589609130468203,10.7894846120423,-0.0732880149986753,4.32296044504113,-0.416548863860377,-0.508619778413858,-0.111093492501159,9.45104301598249,-0.408142528517381,-2.49001233155663,-0.115905840587123,-0.167928431955694,-0.026508021741638,9.8869721792788,1.28768041887784,-1.12917626786206,WALK
1.88,-0.260152711264099,-0.612271047960634,-0.124147312325921,11.0212357961458,-0.260747926294269,4.21075682659025,-0.416548863860377,-0.508619778413858,-0.111093492501159,9.45104301598249,-0.408142528517381,-2.49001233155663,-0.115905840587123,-0.167928431955694,-0.026508021741638,9.8869721792788,1.28768041887784,-1.12917626786206,WALK
1.89,-0.043840163820466,-0.642066071654365,-0.180831544157129,11.2869232514753,-0.303774213272917,3.85930069716303,-0.430814534817527,-0.46414636521338,-0.181399800555713,9.92781585393137,-0.507973604643156,-3.1201558461451,-0.0813038519222463,-0.120620344385691,-0.0661182962679757,10.3878481943513,1.15821991536307,-0.982567098014032,WALK
1.9,0.28526106151284,-0.768640210224799,-0.207704497732661,11.496144759246,-0.350543068229007,3.83225064156238,-0.30399493381521,-0.348271993840091,-0.237339835246732,10.3789831762419,-0.529669828249119,-3.25029408771292,-0.0165823886547351,-0.0851302505662796,-0.0878892307516937,10.5518168403397,0.917630781286006,-0.881065100739483,WALK
1.91,0.526280292762097,-0.84045643249836,-0.216208612379135,11.6977659956186,-0.408014125331735,3.96259416050065,-0.30399493381521,-0.348271993840091,-0.237339835246732,10.3789831762419,-0.529669828249119,-3.25029408771292,-0.0165823886547351,-0.0851302505662796,-0.0878892307516937,10.5518168403397,0.917630781286006,-0.881065100739483,WALK
1.92,0.624633386033373,-0.841206834255027,-0.198785745824185,11.6099755217822,-0.331677554665233,4.05505333942783,-0.30399493381521,-0.348271993840091,-0.237339835246732,10.3789831762419,-0.529669828249119,-3.25029408771292,-0.0165823886547351,-0.0851302505662796,-0.0878892307516937,10.5518168403397,0.917630781286006,-0.881065100739483,WALK
1.93,0.58712293194251,-0.826441284965195,-0.199731542058991,11.1783321176978,-0.22376653829686,3.95422743334072,-0.30399493381521,-0.348271993840091,-0.237339835246732,10.3789831762419,-0.529669828249119,-3.25029408771292,-0.0165823886547351,-0.0851302505662796,-0.0878892307516937,10.5518168403397,0.917630781286006,-0.881065100739483,WALK
1.94,0.483266653705879,-0.819332033298297,-0.20920165207877,10.7036563379319,-0.245962842122955,3.28595643485828,-0.30399493381521,-0.348271993840091,-0.237339835246732,10.3789831762419,-0.529669828249119,-3.25029408771292,-0.0165823886547351,-0.0851302505662796,-0.0878892307516937,10.5518168403397,0.917630781286006,-0.881065100739483,WALK
1.95,0.423039618735191,-0.780188038920979,-0.247014873117333,10.3433714332623,-0.707397990651833,2.10002105737243,-0.230088442253974,-0.288054181815487,-0.225254041836699,10.3776697072766,-0.342020581779993,-2.89716401809288,0.0310075392264074,-0.0803044364345523,-0.0726926888608062,10.3152813250639,0.848120082700679,-0.82474900685747,WALK
1.96,0.463632293030006,-0.695672556016919,-0.303145409756447,9.58714281459946,-1.23703584185044,0.627866027054986,-0.228572241167859,-0.222791870781199,-0.18892842028264,10.2587735320844,-0.0739737838515602,-2.17627472626488,0.0958802655373056,-0.166643813583789,-0.0078700136516431,9.66338235655618,1.06594518637887,-1.14094830314116,WALK
1.97,0.524229695435243,-0.619499756650453,-0.347914124104176,8.48628140180597,-1.20409058371042,-0.522228187088322,-0.228572241167859,-0.222791870781199,-0.18892842028264,10.2587735320844,-0.0739737838515602,-2.17627472626488,0.0958802655373056,-0.166643813583789,-0.0078700136516431,9.66338235655618,1.06594518637887,-1.14094830314116,WALK
1.98,0.589139894659362,-0.595031326521229,-0.312826342290601,7.73161285960983,-0.676784883840176,-1.58658654671206,-0.228572241167859,-0.222791870781199,-0.18892842028264,10.2587735320844,-0.0739737838515602,-2.17627472626488,0.0958802655373056,-0.166643813583789,-0.0078700136516431,9.66338235655618,1.06594518637887,-1.14094830314116,WALK
1.99,0.711042391623607,-0.679025870081795,-0.234564093680813,7.42415453802629,0.561960521630999,-2.21830346043034,-0.407582462636225,-0.0101070157118451,-0.145858183821904,11.0436061493317,-0.496867993331496,-0.541229986155138,0.0811287561361805,-0.235554582316799,0.0206555285517232,9.87360853884252,1.73200399705738,-1.07219140599626,WALK
2,0.859328340249022,-0.877332546253943,-0.151168289130749,7.95583042366883,2.66288100291043,-2.68620395056164,-0.413041937160579,0.35104004883429,-0.177252567410616,12.6752402360164,-1.3877865531359,-0.0750253579017414,-0.0376027021753733,-0.166365743740874,-0.0843518009409694,11.1952783736363,1.38135511794359,0.330636615773203,WALK
2.01,0.985728898718077,-1.26967671100059,0.0104526292012362,9.64508490345408,4.28007332924273,-3.56324104033851,-0.413041937160579,0.35104004883429,-0.177252567410616,12.6752402360164,-1.3877865531359,-0.0750253579017414,-0.0376027021753733,-0.166365743740874,-0.0843518009409694,11.1952783736363,1.38135511794359,0.330636615773203,WALK
2.02,1.1382542339185,-1.52507201581938,0.110536715618734,12.6337079781211,5.57045298905348,-4.19093830992848,-0.413041937160579,0.35104004883429,-0.177252567410616,12.6752402360164,-1.3877865531359,-0.0750253579017414,-0.0376027021753733,-0.166365743740874,-0.0843518009409694,11.1952783736363,1.38135511794359,0.330636615773203,WALK
2.03,1.12957834442934,-1.58226215277426,0.12840149883424,15.7217716413225,5.61200016667145,-3.73751564002941,-0.288625547482872,0.564003905885693,-0.17738773256366,13.136888806556,-1.56452221769631,0.115959434684842,-0.0611955638177532,-0.112200086914917,-0.308450296659132,12.1673618203101,0.906662576922418,0.843057711222486,WALK
2.04,0.410395244826669,-1.15983225011191,0.0439980578549988,16.6874944337491,5.38515609522399,-0.532354596931467,-0.155638474801583,0.811158745307144,-0.141541749215447,12.9607345388039,-1.2021650530886,0.349677972305778,0.0329329025871799,-0.0336249927779649,-0.444152420389986,11.6347467448108,0.380006518464368,0.998906603887517,WALK
2.05,-0.432567051075272,-0.781427030489679,0.0190645350427682,13.7694013572954,2.23167027632111,1.73610247762136,-0.0178800663309034,1.05427916279052,-0.103643925871463,12.5153545088559,-0.433091680373753,0.629751178030136,0.0329329025871799,-0.0336249927779649,-0.444152420389986,11.6347467448108,0.380006518464368,0.998906603887517,WALK
2.06,-0.674027364185794,-0.748528283786414,0.0829844172296051,11.5554581579684,-1.45948553908242,1.44679072031048,-0.0178800663309034,1.05427916279052,-0.103643925871463,12.5153545088559,-0.433091680373753,0.629751178030136,0.0329329025871799,-0.0336249927779649,-0.444152420389986,11.6347467448108,0.380006518464368,0.998906603887517,WALK
2.07,-0.420863710772779,-0.825161348822098,0.134675277289841,10.1304366687248,-4.96647716265688,-0.0933523982439872,0.188769649015363,1.68983279763725,-0.0535884281399755,12.0685644251125,1.21392678802641,1.88541556532686,0.0231513145173352,0.0147085839613276,-0.389080584465276,10.3695010613621,0.576532653031897,1.14250369081183,WALK
2.08,-0.05556202594935,-0.820628716976844,0.162140189887226,8.34335659501289,-7.54356489939931,-0.0623960565876525,0.199024587949087,2.52236628302006,-0.0312015291547855,11.3551433878736,4.15922803509683,3.37430719260766,-0.198401259838122,-0.029094046946339,-0.254611997264865,9.11253184220407,1.62910261271808,1.44448771012694,WALK
2.09,0.0476344667139147,-0.693594354371278,0.226783188323756,7.11896253317679,-6.74150494459993,-0.187786153385915,0.199024587949087,2.52236628302006,-0.0312015291547855,11.3551433878736,4.15922803509683,3.37430719260766,-0.198401259838122,-0.029094046946339,-0.254611997264865,9.11253184220407,1.62910261271808,1.44448771012694,WALK
2.1,0.312728955707927,-0.606482659158107,0.224105850258872,6.37779785048857,-3.51971110368126,-1.94049154860426,-0.0873325392712852,2.8284214331488,-0.315591107416128,10.3723365512578,5.51016746446419,0.460571017083427,-0.394262641430346,-0.108534179092681,-0.159381940459657,8.13339604691918,2.28269724088821,1.45238706976769,WALK
2.11,0.886860082276035,-0.591674528535014,0.133624055494554,6.76367680520371,-0.893793585650569,-3.39959769837239,-0.497471765960762,3.28533427434273,-0.463958935122574,12.6766093195134,2.07985073287239,-1.33407078615789,-0.418590589020211,-0.0620219712084964,-0.130313120790035,7.63589810575763,1.97718372144938,1.15820247316952,WALK
2.12,1.23128703243668,-0.659662640879914,0.0515075832945214,7.74056491883017,1.30367640826831,-3.72310059053557,-0.732180718784782,3.57744760331019,-0.131711523466303,13.4255837167864,-0.242577459295507,-0.509951940491665,-0.425948663178359,0.0715843790742369,-0.126901045770537,7.45982681457279,1.41775478812428,0.997456532330426,WALK
2.13,1.23353399890791,-0.769661419675181,0.0317311667928845,8.49482870519613,3.70225515395393,-3.70605167202254,-1.30868354433103,3.3899434442922,0.377639938046731,13.2257217896878,-1.9912838167546,-2.90270752991881,-0.41678814769973,0.241783823205072,-0.16191466740438,7.74689812212457,0.895533603115282,0.908280841750105,WALK
2.14,1.04587389259538,-0.959168779366775,0.0657599856486097,8.98976341648396,5.82806134579485,-4.48715255249358,-1.6280804190353,3.32520186720608,0.837683560584174,13.9446685899626,-3.20121073880011,-6.35334781755078,-0.405383062650624,0.356749738345697,-0.224225669762528,8.66764716366652,0.505615527979416,0.976329131056082,WALK
2.15,0.735430101766445,-1.03774104325515,0.107112394422681,9.1964187130189,6.82787165454223,-4.99329504119346,-1.65570363095013,3.28239222191947,1.10566779073236,14.5913816376586,-2.74281542684006,-8.0110996962825,-0.417286040209038,0.388189732813011,-0.27442473116351,10.008134833537,-0.0323456403615882,1.02081758458082,WALK
2.16,0.29203013916466,-0.980060952953467,0.136100670151595,9.05239648445374,5.94170878848853,-4.58908776876695,-1.14791050157261,3.09109336054516,1.25225543607337,14.7344780381509,-2.79063122658308,-7.77764317790611,-0.445592169566578,0.389481471666354,-0.29192946307051,11.261050030187,-0.661569278770984,1.10837676887357,WALK
2.17,-0.184099482934455,-0.873095105194441,0.179560500431495,9.30447370474874,3.89710850051299,-3.844558189331,-0.349572753605946,2.91439741625894,1.27924339146285,14.2711051996136,-3.22395283589881,-6.9183067204149,-0.477836783303224,0.354822926176365,-0.256396511356534,11.9864152669134,-1.18979197524001,1.27095250651182,WALK
2.18,-0.553536687702659,-0.788045578440191,0.231846438030253,9.59514197961532,1.9577681201743,-2.87856172370676,0.218817346467125,2.83839974748411,1.16494343914015,12.8258447663281,-3.90111712014058,-5.51844031750162,-0.44923737301609,0.302328411859039,-0.178488719560062,11.9234034683357,-1.38743358353069,1.29533135273415,WALK
2.19,-0.731181690935994,-0.732176771941646,0.266957453778199,9.89194001537817,0.913778451399992,-2.25389587390523,0.525488889629388,2.56952381397325,0.931855584474179,11.0920762113078,-3.16857146975696,-4.64098458241088,-0.37645678886053,0.251898323582633,-0.0958106741188346,11.4013738343563,-1.16133733950009,1.19081685550067,WALK
2.2,-0.70354783326539,-0.697671631065224,0.29894470677284,10.2497592471281,0.483615020543557,-1.97074151172444,0.811753111491996,2.26853524073061,0.759532943026593,10.8571413845109,-2.04278519563178,-4.13013878687692,-0.2753567159203,0.21682913142171,-0.0474168561301432,10.8017738921619,-0.601776743079689,1.11472826675612,WALK
2.21,-0.562755571984001,-0.645353749198605,0.326683337518642,10.6762340875631,0.145943482021935,-1.86476055013982,1.01650238591024,2.23412145631769,0.676099242963621,10.8412182217092,-1.52831029208466,-3.86669456848304,-0.144794893167842,0.179912871774008,-0.0024773731100559,10.3360932467086,0.0810012783778616,0.982328714542134,WALK
2.22,-0.408406449101223,-0.596424551057136,0.335373597750047,10.5159430086591,-0.44219701721656,-1.89735325878022,1.15352555997907,2.29817080207161,0.637723311916741,10.6328295407294,-1.2430340892517,-4.04055409630376,-0.0437250752376791,0.121027138347355,0.0228942746747178,9.97596644584181,0.589016783144577,0.864635502433437,WALK
2.23,-0.231928756893502,-0.617237550599192,0.321053377189548,10.1724141922944,-0.872898178819104,-1.91818931406706,1.26619839808998,2.26711084777946,0.585427511035337,10.0181465076034,-0.616448271933373,-3.73407850955119,0.0145743356736672,0.051301053173257,0.0278874954225424,9.77284822946421,0.818869193252644,0.716058758731196,WALK
2.24,-0.0344555981084691,-0.635930039296885,0.289377293803688,9.78620683338157,-0.867544141588185,-2.05554846104953,1.28788846933217,2.16348318828208,0.545971197516015,9.27899154346655,-0.309374766729036,-3.50714057531101,0.0554999553262172,-0.0043137263682586,0.0273329126189473,9.63121443007439,0.955201487510543,0.321382837147966,WALK
2.25,0.226458480204495,-0.661564459853911,0.243246932046885,9.53513080589757,-0.751045531485821,-2.09207564737302,1.19238980955563,1.97826117141881,0.513391383901883,8.9115190388131,0.539899624204779,-2.56901145708251,0.0917117445536259,-0.025831746189888,0.0389264228674541,9.56539030599707,1.02911476126895,0.010666920154882,WALK
2.26,0.484604404932011,-0.661975059919498,0.202720841214131,9.25912670358416,-0.417848023955443,-2.36454504842135,1.04554144335816,1.77361012549718,0.484884417749664,9.33398032663169,1.53852846566162,-1.96244693553724,0.0977865159784714,-0.0093522043247137,0.0566959514798472,9.61837767724394,0.985537791244879,-0.0979114685125165,WALK
2.27,0.664387819310963,-0.650189756287054,0.171251318985034,9.149532323012,0.253404579857028,-2.79456350552301,1.00948122312179,1.70477220023314,0.446088956051753,9.45907090504129,1.27987865568403,-2.07994538745077,0.0822644962652607,0.037651141365073,0.0743459454977349,9.62621926147273,0.837485521205246,-0.0471339266854839,WALK
2.28,0.735301015430193,-0.652820689062385,0.157368634533699,9.16922382619195,1.38326554364,-2.79632350641867,1.09493359498661,1.60533052699807,0.415324184341367,8.87014417302083,1.0135314732413,-2.46842841533708,0.0710771414759855,0.0921516030793825,0.0923717960344115,9.64363190168183,0.694302175340283,-0.163351502291901,WALK
2.29,0.723904482008235,-0.637964907532247,0.148431899723852,9.19082934034043,2.45640165320159,-2.93308318046875,1.19003342823276,1.43375111870869,0.405293456434443,8.05506611568379,0.726960786298366,-2.32680498833399,0.0581503605217157,0.159569564922004,0.107738868890759,9.60513908593289,0.477056613076033,-0.1616084597402,WALK
2.3,0.603372995999486,-0.586374963876024,0.125454270400494,9.08900793019976,2.7740344315964,-3.20063088158206,1.22231508069608,1.24120112147668,0.369313004574625,7.39359671081346,0.646094463673493,-1.85963553660509,0.0527304993293485,0.221080603185311,0.121006365342846,9.4590516490218,0.315910746378674,-0.143927126594323,WALK
2.31,0.398619774633905,-0.557555220519635,0.114525406372555,8.99262109644087,2.41023612758774,-2.96965778738249,1.2902388713958,1.0810441273249,0.28342643087777,6.77935895141402,1.01894407830831,-1.97624008672427,0.0240763771980494,0.260781379497479,0.127343228980198,9.2576954456462,0.131989446460266,0.0227575592511459,WALK
2.32,0.208415420824907,-0.544173884559946,0.126632083383372,8.69218099322404,1.67137507771669,-2.92929345787118,1.39219937182628,0.945897576465922,0.172281558735425,6.4444923244844,1.53572696118487,-2.37902265531723,0.0109007790073305,0.278132363637079,0.128474053510703,9.09381610436173,0.117893798916361,0.0958771944541473,WALK
2.33,0.0501706972432287,-0.532107061590019,0.147095546746439,8.56757236442837,1.21609061685482,-2.78265815094475,1.43608737938478,0.858336929881449,0.0775141674166771,6.2959528864649,1.75263157128306,-2.69813890827096,0.0070036549737976,0.280037382053113,0.120119533848746,8.96683239718619,0.220256123709663,0.0648062083548183,WALK
2.34,-0.0289288708538217,-0.521948478009958,0.154136567645264,8.54000252150696,0.81446604955554,-2.62146104309991,1.3845959839126,0.8062499498369,0.0208139649247953,6.22058407217677,1.70196226018012,-2.79101160649232,0.0155311785890213,0.266619166624293,0.107252176700931,8.9744604477844,0.395533809568473,-0.0282914522230087,WALK
2.35,-0.0783103400339207,-0.524121493441311,0.182528120143638,8.85192386053889,0.365007117147666,-2.97714906738312,1.26170802722898,0.761263904779276,0.0128131404876404,6.28047897681785,1.75120492471578,-2.53817585025395,0.0234611850123765,0.258923503245705,0.092303937172828,9.04825868598219,0.585776643354473,-0.0201545748659156,WALK
2.36,-0.105565885395163,-0.517878845341873,0.212864307439866,9.04226482545611,0.246124605526293,-3.29815306061813,1.12238560299174,0.698200213497332,0.0182681446410291,6.43390398777128,1.87486590181104,-2.31860817589726,0.0277347351879778,0.242841366418533,0.0677431890035007,9.15096826184808,0.695837428266742,0.073085509673673,WALK
2.37,-0.106390267009334,-0.536857972074674,0.238117989516923,8.86712575515443,0.539159163550839,-3.25122403292058,0.995958019089331,0.630682434806975,0.059154596994586,6.31554547174501,2.101390811984,-1.92775218921231,0.0280218005651639,0.220028727814936,0.0465814241474603,9.25610283008464,0.831807079010989,0.0204704946353076,WALK
2.38,-0.117668376216029,-0.591800876626734,0.259271027301823,8.71060298716308,1.0111907507443,-3.06272387301338,0.867921419035669,0.536476875941798,0.100914567972927,6.02127125482738,2.32675920707199,-1.43674959080555,0.0259003858471095,0.204818041736655,0.0300141240157875,9.32714529154054,0.927653304479304,-0.0411439416121656,WALK
2.39,-0.0906864166692447,-0.636360569495727,0.290627501636498,8.72795866915608,1.14841471773398,-3.01368925790301,0.698342524393423,0.396030997232379,0.103824191449264,5.76784909218358,2.48274043345849,-1.18023299337588,0.0252254259770059,0.197077150106432,0.0204661793111304,9.38629319952047,0.992786662196277,-0.109114334518794,WALK
2.4,-0.0844710819590254,-0.656427704496211,0.304523320023515,9.19354778228892,1.06770076021694,-2.55063164581745,0.475341149698634,0.20580742696848,0.115456391340317,5.55561257694454,2.22277094535093,-0.98243151579288,0.0121376007331758,0.201899216523621,0.0176952223220338,9.34021891914697,0.917407012356919,-0.103890057055921,WALK
2.41,-0.088081420477023,-0.658371391033668,0.301260131646506,9.41849956009607,1.23665799993282,-2.34391581932604,0.185571070109772,-0.0175333944103931,0.128353783877764,5.41650737905449,1.71304675138866,-0.870308264288536,-0.0057058597197555,0.211837232593799,0.0065515017548733,9.33515785532766,0.75877851713798,-0.135443536815021,WALK
2.42,-0.0742094337003014,-0.622005709611252,0.299314516837421,9.76974214792939,1.02184853472889,-2.38394978912419,-0.157643770643033,-0.255981411530791,0.144873552013529,5.46181978085949,1.53182245677824,-0.690263956251917,-0.0106066783887556,0.212614164658036,-0.0097947040324377,9.3424245780428,0.591384594054792,-0.241995339916533,WALK
2.43,-0.0839099659265843,-0.577361113011187,0.285371908994619,10.0066908586469,0.658028858517724,-1.92226773973065,-0.413805537726586,-0.505153166308237,0.158496628574416,5.66178125643135,1.0452915251476,-0.115299688779641,0.0117247575253325,0.192124236695097,-0.0278392737492459,9.34380343127917,0.467402707483514,-0.466588585973765,WALK
2.44,-0.117991124305347,-0.551011551523062,0.273898758896699,9.94340594724324,0.613441147231635,-1.6980695987192,-0.525448875830528,-0.738291868098867,0.155893032719432,6.13467583160066,0.452299972260746,0.42516137919609,0.0472247834720093,0.165361121081257,-0.0417997533682708,9.34190949944108,0.324901274090497,-0.573097958490405,WALK
2.45,-0.087363888991395,-0.552123482291665,0.262781722781509,9.80668199657159,0.712004789565651,-1.85752124935661,-0.488297850420486,-0.975017468453362,0.126824908337602,6.65993338315584,-0.0052903541727421,0.435845163022566,0.069879139752021,0.135171005172805,-0.0543236107313072,9.31579002539902,0.207556687070752,-0.55536054905393,WALK
2.46,-0.030505843650539,-0.540657572007291,0.245912381506738,9.69739317457361,0.627787696493477,-1.99468409578635,-0.383170269728317,-1.20174839428501,0.0854067816721176,7.21180004759729,-0.488818059776549,0.0682759138028764,0.0915061804822799,0.0928568944429378,-0.0537679229553242,9.26911010742223,0.0885811018313491,-0.591528496239417,WALK
2.47,0.01204807386535,-0.562232284963668,0.249174644124985,9.41555507215571,0.471375206898144,-2.14318699130387,-0.290215485820739,-1.41473745423482,0.0501955053912379,8.09086711308702,-1.00380099696078,-0.198639615064713,0.0982148470015293,0.0358745395589633,-0.0411875728140143,9.14039761814,-0.0164292658956857,-0.434792543742451,WALK
2.48,0.0550886198581923,-0.583060065170527,0.2490278550701,9.11757778169231,0.194083851974222,-2.31585497023833,-0.298639369427796,-1.54753675599631,0.0221321869578215,9.09304400339443,-1.262537195382,0.215375479780612,0.0845156510608903,-0.0269463349708745,-0.0181617422564915,9.03228995667309,0.0400480839065989,-0.404852131104641,WALK
2.49,0.107472240475486,-0.612008405069407,0.261475521311805,8.94188963196643,0.115017774008209,-2.61459856139484,-0.36206165563954,-1.60828287352009,0.0212479258455074,9.77011116413721,-1.02235907335512,0.858675831969716,0.105584585575431,-0.092335628936089,0.0138096478650193,9.03409202776737,0.16203358587141,-0.687514053670628,WALK
2.5,0.189324878524097,-0.654659467708564,0.29042923268871,8.83699689626386,0.23110151727116,-2.94293862035942,-0.432555544170342,-1.59377216555708,0.0306183293550791,10.5238643707539,-0.916949450912488,1.44889378008865,0.139313725545148,-0.133256066255652,0.055404728683598,9.07796398391548,0.338299473534299,-0.865559370239944,WALK
2.51,0.256443057696973,-0.668121586772912,0.31487380322313,8.87457560001174,0.490574917012784,-3.17230935219347,-0.536345516310002,-1.55652460747888,0.0517313755544719,11.3233534641812,-0.85267873580814,2.43399062988877,0.166851183900771,-0.156751497251502,0.105321136263518,9.19899580526029,0.52117679236476,-1.06753440050712,WALK
2.52,0.287604910735175,-0.68332169038163,0.336715344516889,8.75088185554982,0.776980061123864,-2.83765409369438,-0.604887296266775,-1.58489706912142,0.0428918764967467,11.7393762536047,-0.662472053562579,3.57268104225875,0.187501735648777,-0.166326912716294,0.150374427972546,9.40637923384277,0.726843652367627,-1.19079012720467,WALK
2.53,0.280513549947976,-0.6987221709095,0.361907563729659,8.69765658175082,1.10711435054445,-2.56940727805893,-0.597738692161675,-1.67709424163052,0.0238232376265945,11.6722220142673,-0.0611310693344276,4.70913257195369,0.185117739002102,-0.1667915190443,0.188069130844496,9.65644853383237,0.776587336787227,-1.06608218340403,WALK
2.54,0.323498036847924,-0.674671036477475,0.370352832352804,9.34116449802557,1.10746983153385,-2.44282655028867,-0.527169901848769,-1.78003388241812,0.0376215793706947,11.6070030458592,0.301798479394413,5.21653364438132,0.162599145508878,-0.14906749344233,0.211285514131182,9.9052917518166,0.769157372288043,-0.94971460437321,WALK
2.55,0.346762822151772,-0.612295931193581,0.347758837071355,9.65514487907662,0.901019310380575,-2.02923079218963,-0.376031623518048,-1.85163795653209,0.0581530736368485,11.6043766084183,0.272352466846268,5.44613521611309,0.0889747378687916,-0.148653691979791,0.221862408274786,10.080399715917,0.690602909376522,-0.573691875697841,WALK
2.56,0.389126104141468,-0.554777502943085,0.307654606217226,9.8734767049923,0.577029400129054,-1.59616999701089,-0.183970099345382,-1.79858412777027,0.0511167153231747,11.4914532606914,0.238652764627738,5.65942378266551,-0.0244327473513235,-0.129717203137627,0.213408032637411,10.1635935187871,0.472821056792125,-0.269297284055223,WALK
2.57,0.426908875814411,-0.470989748451851,0.283824244675198,10.3690796085567,0.129931974769064,-1.1404868686418,0.0234075092176239,-1.65609681374058,0.0319393928834631,11.4970690599516,-0.220507412975562,5.18871619755696,-0.104255732647593,-0.106419292974652,0.201582332116212,10.1695462220034,0.286228595941853,-0.429303428681825,WALK
2.58,0.450200484232006,-0.365116593557138,0.265176483935431,10.3958817987136,0.329492812002803,-1.11038071593496,0.285056084158926,-1.46725022101314,0.0059518201685331,11.6204064175199,-0.37328475045205,4.16748678648971,-0.145256760594873,-0.0738642580655028,0.17883909315075,10.1315135079026,0.168469645679592,-0.429433844704213,WALK
2.59,0.492659768429307,-0.280692395587748,0.256884557230062,10.1483114268982,0.979124558724363,-1.4720151261775,0.512742164943719,-1.25222085403621,-0.0183287734636928,11.4031363792971,-0.0133236764226471,2.97050995533852,-0.140632935839869,-0.0494645015515395,0.160200870783629,10.1253327322255,0.040455184538907,-0.427984126309077,WALK
2.6,0.530444783724872,-0.185788185364026,0.233975597550213,10.449930233062,1.38934545158757,-1.81172117985104,0.652659436381826,-1.09879202191908,-0.0506923915095117,10.9376756393365,0.667863183151087,1.3220717974592,-0.102263651991416,-0.002126209434029,0.129245130763928,10.2383062076449,-0.0002060096913752,-0.0858219312287255,WALK
2.61,0.477262816536833,-0.0549497181492542,0.190789494509325,10.8438283685656,1.70516747940865,-1.69884873517263,0.682748622447719,-0.968449437842888,-0.0928735079416195,11.2182788202864,0.876809462138599,0.109556588832987,-0.065484422047021,0.0129229939507549,0.109785025304142,10.6763766533285,0.19227569638363,0.575606759019035,WALK
2.62,0.429348845535065,0.0656153100748074,0.139432658485308,11.2067712962741,1.95589212759388,-1.65493864015324,0.547054282857028,-1.03264629576519,-0.0725761442394113,11.8471266665994,-0.120689753363764,-0.613767695547409,-0.0787645484461136,-0.0591409765280596,0.145637346159917,11.3181390895377,0.592236783900548,0.950896142129466,WALK
2.63,0.414616704341721,0.167158958395447,0.102485867375746,11.4769929812744,2.30606948293352,-1.50205562777306,0.251613466257724,-1.4028198272977,-0.0401465273617426,12.5702135170312,-2.09193031940614,-1.00034470656031,-0.0787645484461136,-0.0591409765280596,0.145637346159917,11.3181390895377,0.592236783900548,0.950896142129466,WALK
2.64,0.374602754854699,0.277521106366306,0.0667772812111961,12.2198401744529,2.56201495410475,-1.32821265333635,0.251613466257724,-1.4028198272977,-0.0401465273617426,12.5702135170312,-2.09193031940614,-1.00034470656031,-0.0787645484461136,-0.0591409765280596,0.145637346159917,11.3181390895377,0.592236783900548,0.950896142129466,WALK
2.65,0.322706853202543,0.399258339342462,0.0423808618831448,13.2843737134875,2.12260625059283,-0.962789235415294,-0.151090584789979,-1.37446490032294,-0.0421722450625625,16.2874257960476,-3.63201671543483,1.53863652391083,-0.199105365300994,-0.134849102142366,0.229528802114154,11.9172670061667,0.671023291906935,0.922126419485709,WALK
2.66,0.270837276808604,0.530046765376876,0.021533035527329,13.9216469254336,1.57706068487089,-0.0644926745488479,-0.151090584789979,-1.37446490032294,-0.0421722450625625,16.2874257960476,-3.63201671543483,1.53863652391083,-0.353976512847415,-0.154631167202421,0.405185319786489,12.4134792766626,0.759961013438578,1.441121187246,WALK
2.67,0.186778492759233,0.674733364910603,-0.0211624843639743,13.9197464242473,1.35888526500551,1.23113752119995,-0.151090584789979,-1.37446490032294,-0.0421722450625625,16.2874257960476,-3.63201671543483,1.53863652391083,-0.353976512847415,-0.154631167202421,0.405185319786489,12.4134792766626,0.759961013438578,1.441121187246,WALK
2.68,0.133178607551657,0.815127635990814,-0.0773475811759219,13.9250210486392,0.850873746975974,2.09741510738213,0.630512034750609,-0.618719948723809,-0.0007997508142069,11.1433568094179,2.57629225199978,1.41386951862259,-0.547022214442213,-0.273471637959297,0.428179207585143,11.2866033632022,0.0365706067104003,1.54634182924534,WALK
2.69,0.162414186238587,0.966675226280291,-0.110238966065003,13.9196105205239,-0.158485884195404,2.66019892396152,0.269828393412706,-0.770122481323037,0.0170169870758774,6.28055769882488,4.42976657259141,-2.52523434331902,-0.454320544431215,-0.234436740071596,0.33334574339398,10.506714023993,-0.357457144817113,1.19342620047525,WALK
2.7,0.205206770927459,1.15413228867143,-0.162781434453654,14.0232456978789,-0.571294641887312,3.97073737304071,-0.3201495298734,-0.994927396549393,0.0173373257270705,4.77419478566026,4.44201613572742,-4.27059420375827,-0.150169011434318,-0.191576767899318,0.246292592364214,9.91312899801204,-0.807740722871019,1.1085213227869,WALK
2.71,0.186186585498436,1.58036968477643,-0.259957839503951,14.4741059048826,-0.578032305382815,6.16063127255875,-0.746882183635743,-0.978198553450557,0.0934975112466392,3.87915599752673,4.11248800284268,-4.31339617772569,0.274980028210727,-0.28975236510614,0.112295962918595,9.18281060853283,-0.876343430572117,1.26463677888906,WALK
2.72,0.167762719630869,2.20883827967802,-0.304409239731735,13.9635672428926,-1.95670959821559,6.96906482238144,-0.947670852302028,-0.903161494950582,0.137523025176997,4.21426770903486,2.08186808604445,-3.37526401569702,0.508410499808745,-0.329362257686077,-0.0066304817801095,7.96790865960448,-0.539069915774168,0.371922905528655,WALK
2.73,-0.25118484024849,3.18912329757186,-0.163183640637638,15.2959245865896,-3.64760502920934,6.91813308713915,-1.00616667713155,-0.913015675125023,0.162343809495227,5.94166197303733,-0.560600417856044,-2.6680875513335,0.508410499808745,-0.329362257686077,-0.0066304817801095,7.96790865960448,-0.539069915774168,0.371922905528655,WALK
2.74,-0.216889073635172,3.50728292326388,-0.0823813364148336,12.6858561732156,-2.43278724938062,1.84866817067875,-1.01385869928441,-0.981070751965306,0.148155282328568,7.07317433843887,-2.61368422000456,-3.18585847038071,0.65113275988622,-0.275467801046508,-0.0436560075483871,7.02370938016048,-0.209418950006691,0.450359712361142,WALK
2.75,0.467339593041854,2.96656414578183,-0.0657416891855414,12.9247813833807,-1.14890157833429,-2.04972932187901,-0.925082846318883,-1.15915155446379,0.0555103003017991,8.57548093052818,-3.24646055834739,-4.3893603488783,0.716512562565778,-0.183971270562508,-0.0429568342101039,6.67411241927834,0.172376386308818,0.371962131772602,WALK
2.76,0.931424914070913,3.1250338009688,-0.423296951462129,12.9576873319449,-1.81792111390157,-2.88318477696263,-0.769165786518203,-1.2795312595457,-0.0104639677056156,10.2937236847126,-3.29960690413878,-5.47499817829274,0.711337422528334,-0.0861409416186983,0.0049402659996141,6.95968133309176,0.701585761268589,0.0980452423183606,WALK
2.77,1.17386729599683,3.31388045694189,-0.747476748480926,11.6489440701014,-2.20158379934017,-4.82800266770129,-0.513374237013126,-1.29925120690084,-0.0402727606080068,10.8375827130231,-3.63909717049793,-5.00877355557464,0.697176461025168,0.0162088103070034,0.110789079283032,7.70008498713484,1.39018440328143,-0.101624488795032,WALK
2.78,1.26270926391737,3.06890542605863,-0.943892991062537,9.90563750217495,1.65500540519139,-5.92713646805877,-0.255486698809321,-1.30475830380045,-0.0934399655568899,10.0561508074658,-3.6509130339451,-4.21232806949145,0.667617641884201,0.107655702135173,0.246358431349306,8.81551158098927,2.11092150237692,0.222375606952399,WALK
2.79,1.43671390110254,2.56385963208904,-1.25915215857913,9.59113112087376,5.84185811929273,-6.45494942399121,0.0090737122851618,-1.27498360573858,-0.177493477549065,9.4263167350116,-3.20619107626588,-3.99647247786906,0.580299454062863,0.192196273624015,0.378584687534088,10.240695893934,2.80810377694199,0.32650032578239,WALK
2.8,1.48945327333517,2.26654898536111,-1.46802837572981,11.5345258922828,6.16746538296574,-6.90826267599294,0.118427411627303,-1.18285440452673,-0.214695406596243,9.30458141136148,-2.35740786352744,-3.57413637132455,0.460239978941493,0.188202308240883,0.473013222808818,11.6806807601937,3.33731737130569,0.36622123524672,WALK
2.81,0.99402519040464,2.41284569891865,-1.38752688618855,12.916961849104,5.65555954124305,-7.33179167139497,0.111543672124885,-1.11429419790061,-0.21563165166036,9.67892334223516,-1.24663619081804,-2.86829661474985,0.336322542226403,0.0903043420909726,0.484707829331872,12.0020886346024,3.16673810114491,0.332865952804346,WALK
2.82,0.109618263545227,2.60592350263503,-1.21434175066355,13.9386908149835,5.05200583741401,-7.18507919798362,0.142854449941726,-1.06081082114781,-0.185945030297689,10.1056567173742,-0.245134011467686,-1.61828916703716,0.173728275665401,0.0472506024053843,0.392950871431946,11.5200807696178,2.59383546018298,0.510003404916844,WALK
2.83,-0.816213389040491,2.72972413918911,-1.01418036029215,14.0054762657976,3.59843931108797,-6.13857588123332,0.132530789028787,-1.04361808605925,-0.157407075070327,10.1842829386867,0.33658235596316,-0.785026732589584,0.0222021640638226,0.0518135051264194,0.243792586921394,10.7623699077337,1.99809773684583,0.633271300153671,WALK
2.84,-1.61826038506954,2.67594434119404,-0.896225661544286,12.3463834445211,3.06523368500787,-4.83903039913596,-0.0309821440209002,-1.03978804183518,-0.0967476090632955,10.3387580822278,0.921182621849599,-0.889501237318313,-0.0852925764117544,0.0493767713283194,0.0973628508526177,10.2775496074294,1.45898898685907,0.64377270979776,WALK
2.85,-2.39326470378154,2.47843706989199,-0.804024351552609,10.4058950821252,1.72599915706057,-3.9952494912595,-0.228180345215924,-1.01326991817905,-0.0208349165475301,10.0121274973116,0.866019303514184,-1.23666272889064,-0.140132242976211,0.0631007506070597,-0.0302726298973375,10.1388662398055,0.914475499940175,0.58282545397547,WALK
2.86,-2.59324699970102,2.23093029927906,-0.64317656843212,10.0832091920066,0.312419504473386,-4.29545968381172,-0.353680747188278,-0.960003027849603,0.0237670420853821,9.88319542015105,0.440334724908346,-1.36853888906421,-0.157422282052804,0.0843236974472907,-0.128370267832743,10.075518316023,0.472123243527431,0.436299189149943,WALK
2.87,-2.43705115630528,2.16299276987785,-0.501074504129235,10.253441743479,-0.810427487611067,-4.26278469414641,-0.414492705300493,-0.874791437967965,0.0661277566236069,9.94137369631778,-0.182667142276208,-1.28779473469954,-0.139842100332099,0.093333408026827,-0.190201625569189,9.97870789319854,0.418720976927268,0.288288346304827,WALK
2.88,-2.02170598817959,2.07372789943673,-0.468013617841673,9.73419879663263,-1.7009596107154,-4.33360025154761,-0.444261656081353,-0.7907424724197,0.0868346321272886,9.77559638654121,-0.608855132403847,-1.43982273957609,-0.139842100332099,0.093333408026827,-0.190201625569189,9.97870789319854,0.418720976927268,0.288288346304827,WALK
2.89,-1.64754058968032,1.90510270133482,-0.459851337644824,9.08468621039768,-1.88322746124671,-4.0027460681794,-0.500701340451714,-0.718893276080671,0.0684444516399526,9.50052616518278,-1.13996386129749,-2.26779744698611,-0.104095737460025,0.105888186893334,-0.218115834613455,9.81391386246846,0.548615013464108,0.187337767074595,WALK
2.9,-1.37278261959674,1.66965226497901,-0.483609856350206,8.62057497828492,-1.90438565954097,-3.45183922516554,-0.551027035392377,-0.670336002835738,0.064548865472753,9.20687096033373,-1.2153238225383,-3.05548373732086,-0.0740114375180531,0.108206973352833,-0.230678412002743,9.59780423204265,0.819387549245513,0.0793738752421736,WALK
2.91,-1.13118398499641,1.38207841577513,-0.512007780552485,7.88205802356754,-2.03639665684505,-2.98603763577688,-0.549148025327896,-0.659981706526385,0.06312745223499,9.00515835876449,-0.902452553953492,-3.43562655533195,-0.0386669580106964,0.105142458125663,-0.227241268700276,9.30039569470813,1.23774303995854,0.0049461988475274,WALK
2.92,-0.887792890962341,1.13871259919875,-0.518257967973487,7.30589721649664,-2.28797747258214,-2.69854827825927,-0.549148025327896,-0.659981706526385,0.06312745223499,9.00515835876449,-0.902452553953492,-3.43562655533195,-0.0308056888592683,0.102593800231328,-0.203086153666094,9.0816011266149,1.46807523602167,-0.240783539563787,WALK
2.93,-0.698503240395882,0.974165550653434,-0.500810983627253,7.04933331760531,-2.50745135258857,-2.66487432790876,-0.549148025327896,-0.659981706526385,0.06312745223499,9.00515835876449,-0.902452553953492,-3.43562655533195,-0.028894569728535,0.10726469181246,-0.139603138288801,8.95584490156899,1.29293828692579,-0.401524186731201,WALK
2.94,-0.571641026558162,0.821662511553531,-0.460157518556621,6.88336039963572,-2.83722766940723,-2.79642391256301,-0.549148025327896,-0.659981706526385,0.06312745223499,9.00515835876449,-0.902452553953492,-3.43562655533195,-0.028894569728535,0.10726469181246,-0.139603138288801,8.95584490156899,1.29293828692579,-0.401524186731201,WALK
2.95,-0.365266727656797,0.596671030383525,-0.354244819822309,6.51777565968859,-3.08127133390514,-2.9367871931786,-0.549148025327896,-0.659981706526385,0.06312745223499,9.00515835876449,-0.902452553953492,-3.43562655533195,-0.028894569728535,0.10726469181246,-0.139603138288801,8.95584490156899,1.29293828692579,-0.401524186731201,WALK
2.96,-0.158227002156773,0.246406151220686,-0.243182218087183,5.56629692053057,-2.18486033025567,-2.50301181679862,-0.523365516034791,-0.752347506091729,0.0016869169131313,8.4110243968785,-0.412911487668018,-3.24753820659921,0.0024896567096941,0.102176881380413,-0.0280981440740047,8.99801200585062,0.595729990161879,-0.478520910035471,WALK
2.97,-0.26312943181776,-0.110300193072468,-0.147471507356586,5.59405804932177,-1.23398014986388,-2.55049364112882,-0.517889088194485,-0.819172730997615,-0.100076570656794,8.4245142059587,-0.754673444787806,-3.42384331916718,0.0879906054956295,0.130411838853251,0.0092291128627446,8.99937132851472,0.332738834404028,-0.510250645377737,WALK
2.98,-0.26312943181776,-0.110300193072468,-0.147471507356586,5.59405804932177,-1.23398014986388,-2.55049364112882,-0.471151482309446,-0.818139896501244,-0.123263447483918,8.59944543384863,-1.06662690169561,-3.5565003108627,0.0879906054956295,0.130411838853251,0.0092291128627446,8.99937132851472,0.332738834404028,-0.510250645377737,WALK
2.99,-0.26312943181776,-0.110300193072468,-0.147471507356586,5.59405804932177,-1.23398014986388,-2.55049364112882,-0.426628992437615,-0.80576240100806,-0.140355785353331,8.95539169594935,-1.39505410983845,-3.35746518352336,0.0879906054956295,0.130411838853251,0.0092291128627446,8.99937132851472,0.332738834404028,-0.510250645377737,WALK
3,-0.468898749107238,-0.297579176837272,-0.0767790079369849,5.88510192883222,-1.258747564383,-2.80229912872645,-0.326621633014554,-0.7812751414757,-0.15626418868954,9.45611763438307,-1.30030651262658,-3.17583140785448,0.125297493536353,0.155166595624233,0.0020671386477824,8.99098477903801,0.380016728970577,-0.270110153527113,WALK
3.01,-0.538273009539818,-0.407663863098613,-0.0547403811811316,6.04570472225167,-1.76510510565609,-2.61053300211182,-0.326621633014554,-0.7812751414757,-0.15626418868954,9.45611763438307,-1.30030651262658,-3.17583140785448,0.148369914879796,0.145699787040516,0.0047335838727616,8.99902259055166,0.445633908717203,-0.346911182738816,WALK
3.02,-0.557605457033164,-0.414762034230622,-0.0837828970845484,5.85307524454604,-1.56821684366764,-2.28580946930156,-0.326621633014554,-0.7812751414757,-0.15626418868954,9.45611763438307,-1.30030651262658,-3.17583140785448,0.191640907593169,0.13032054985319,0.0064204520822556,9.0748536978138,0.533699769971925,-0.395768482958462,WALK
3.03,-0.53426843979343,-0.442836039818961,-0.0967672582270087,5.52880590163837,-1.41224331746778,-1.92979272962832,-0.211634544317679,-0.792411037520817,-0.171183735187401,9.61729659698899,-0.626332834502123,-2.94098580492982,0.210047206091975,0.111625996049827,0.0178453856136788,9.0420690037658,0.755744666443758,-0.383635028588244,WALK
3.04,-0.471633572325588,-0.4758212526645,-0.142572898046228,5.41080390434781,-0.88572015989455,-1.55383017664433,-0.181253224374583,-0.81679413762377,-0.181431961895048,9.50287310717243,-0.387100803589928,-2.32738507791941,0.228452881288461,0.0923765291570844,0.0371459613914408,8.91538315363234,1.02112728127554,-0.39632578971924,WALK
3.05,-0.434047663160706,-0.523722571517157,-0.167832921218713,5.99527206189957,-0.184568156926442,-1.62242675205033,-0.208079455128428,-0.83592215545229,-0.184769390930857,9.43520373687414,-0.521280279241789,-1.83968778775454,0.224810406023531,0.0577643326434547,0.0613224644920976,8.72504611658452,1.48547844515525,-0.58641228794186,WALK
3.06,-0.438406137277742,-0.617855473016102,-0.128432656940132,7.05685364652726,0.135524722721267,-1.28662752942264,-0.247208490349743,-0.813314495303634,-0.184928901877503,9.65848607194633,-0.557472403648841,-1.80285319996125,0.15567862710445,0.0153250175182994,0.0721132620527243,8.58042597268153,1.87152567329977,-0.642473981164585,WALK
3.07,-0.348743752854063,-0.626720954114037,-0.149169777134354,8.09383740072834,0.0769536614560317,0.252014714770784,-0.28854927257423,-0.777199232772244,-0.185164712939178,9.77393803541906,-0.549196370412091,-1.86082516954869,0.0857730461785047,-0.034792409877978,0.0690988317748368,8.63858710381277,1.95808641398697,-0.829778158685723,WALK
3.08,-0.0793233020558957,-0.657461426123985,-0.129194416558507,9.44604076549179,-0.3692409741396,2.1252345233822,-0.311032361323207,-0.720054600876813,-0.18167799752485,9.9558528484526,-0.480781490802739,-1.81912528646105,0.0263787329508483,-0.0918984045807301,0.0627334564267851,8.77804405357152,1.88685969035498,-0.962319143359356,WALK
3.09,0.155424780811003,-0.743904157435821,-0.0574812463985871,10.4649495518525,-0.737031894078747,3.60499200825248,-0.359487878675054,-0.6622600145975,-0.190645158527298,10.074940171602,-0.482741275646469,-1.72937563981026,-0.0149297929726068,-0.131054027298837,0.0335823181690811,9.02737776808105,1.84953903201304,-0.993022542285868,WALK
3.1,0.188714924874874,-0.806615661916386,-0.0506534565574031,10.5032703025581,-0.34542440710053,4.22574560869631,-0.400139860264628,-0.611826758175861,-0.197491924237391,10.1163126508705,-0.632534457711935,-2.08161810882095,-0.0348019638359361,-0.154747294840016,0.0036904969736756,9.28520130064663,1.7951060288675,-1.0532117867332,WALK
3.11,0.22374238101407,-0.848931941570169,-0.172350411196217,10.0388790593307,0.776575867695361,4.44378201891854,-0.400139860264628,-0.611826758175861,-0.197491924237391,10.1163126508705,-0.632534457711935,-2.08161810882095,-0.0411252295955263,-0.160197480829541,-0.0266028381485875,9.62471310731039,1.71029746068789,-0.993981378226382,WALK
3.12,0.366797648763022,-0.866591036482501,-0.381763819499067,10.0440713114055,2.48870066548001,4.54635773873973,-0.421272801383831,-0.571380190367806,-0.210482789118174,9.97089020450445,-0.941035036619308,-2.34580272635781,-0.0365894736497877,-0.163323069197068,-0.0465101881585324,9.89811857674282,1.61325067623844,-1.03799571925891,WALK
3.13,0.540864119269095,-0.967857024148853,-0.54527413089373,10.8905252350762,3.65259068549364,4.40065236538613,-0.422686342223026,-0.54225853851876,-0.221945567133927,10.0740388614461,-1.02977828010871,-2.54279705970767,-0.0149952180861372,-0.165736857799071,-0.056331655352256,10.0140582397265,1.37514820735891,-1.05439615878229,WALK
3.14,0.747269017309389,-1.14472919017456,-0.599001880717742,11.7971947171472,3.40548290909969,4.04914124832635,-0.392660264562702,-0.500124864626051,-0.243751416710805,10.2553183080807,-0.816573287082002,-2.59586207157416,-0.0115141258757804,-0.165715440466565,-0.0733713819714233,10.1340969187762,1.06455496598344,-1.10454392267272,WALK
3.15,0.949749995677346,-1.29291088303595,-0.513746608493285,12.1999688784886,2.73509891272992,4.28200653570476,-0.392660264562702,-0.500124864626051,-0.243751416710805,10.2553183080807,-0.816573287082002,-2.59586207157416,-0.0115141258757804,-0.165715440466565,-0.0733713819714233,10.1340969187762,1.06455496598344,-1.10454392267272,WALK
3.16,0.958690632921872,-1.3219130927372,-0.379951201629492,12.180612071725,2.44897905942791,5.42269682439804,-0.298264921737525,-0.437429390292478,-0.282911241055856,10.4812820985213,-0.409273095423794,-2.47746932103236,-0.0115141258757804,-0.165715440466565,-0.0733713819714233,10.1340969187762,1.06455496598344,-1.10454392267272,WALK
3.17,0.619861697197692,-1.16737117834862,-0.204748279509183,12.4105388572958,2.24118021865821,5.8364706419069,-0.220297433236343,-0.368577546052659,-0.311618526974118,10.6950160370188,-0.239478758651428,-2.17966708679967,-0.0115141258757804,-0.165715440466565,-0.0733713819714233,10.1340969187762,1.06455496598344,-1.10454392267272,WALK
3.18,0.280755437922874,-0.806356835947291,-0.159595413154984,12.7038344175688,0.909844326804909,4.7100729565425,-0.165938032157075,-0.291294007953169,-0.305797398146743,10.8269119622646,-0.181600553789629,-1.83626848060746,-0.0115141258757804,-0.165715440466565,-0.0733713819714233,10.1340969187762,1.06455496598344,-1.10454392267272,WALK
3.19,0.21352974913534,-0.573592531258968,-0.184271954459696,11.611552730174,-0.959139745110299,3.39761230470682,-0.132363836920594,-0.194601613417554,-0.287507544340594,11.0775291872142,0.099412796663937,-1.37969752740888,-0.0115141258757804,-0.165715440466565,-0.0733713819714233,10.1340969187762,1.06455496598344,-1.10454392267272,WALK
3.2,0.25177648267451,-0.429361651237722,-0.189831051768616,9.22987101974426,-2.35005207290569,1.80046810685703,-0.117998949372175,0.0142689624457562,-0.231327717157197,11.4398684186127,0.624220417960189,-0.332754596834277,0.125382131678808,-0.213485693754732,-0.0967858927297749,10.1137099200175,0.578755968110766,-1.40936581011878,WALK
3.21,0.320068253025142,-0.673884337381222,-0.12110142590494,7.34241177945478,-2.74895796569909,-0.248277509108377,-0.191296989965345,0.240621932279937,-0.19424552412941,11.8817017271814,0.322355066986439,0.748033988840706,0.246721051673627,-0.270848261160734,-0.059044884943748,9.73375587543015,1.01647977792422,-1.62685266178038,WALK
3.22,0.611607791636014,-1.17372608027265,0.114108141799066,7.80159373926499,-3.03585847183629,-2.49167759490488,-0.302409822965495,0.37104336005285,-0.216096270055106,12.9698946913615,-0.456553734141362,0.882099759222699,0.154289060152647,-0.160112817529129,-0.0554197991180139,10.5509618221408,1.39732129518849,-0.77575011169191,WALK
3.23,0.611607791636014,-1.17372608027265,0.114108141799066,7.80159373926499,-3.03585847183629,-2.49167759490488,-0.302409822965495,0.37104336005285,-0.216096270055106,12.9698946913615,-0.456553734141362,0.882099759222699,0.154289060152647,-0.160112817529129,-0.0554197991180139,10.5509618221408,1.39732129518849,-0.77575011169191,WALK
3.24,1.24771309941448,-1.69861711236931,0.36730708937885,11.0528274990454,-2.58265985166197,-5.01628175549573,-0.384643522941142,0.567891907252761,-0.251789738186868,14.4675824437518,-1.46675583274559,1.15550244948558,0.0189206089577763,-0.155520881617574,-0.101537596479471,11.7658863885268,1.29936987058105,0.547692408318075,WALK
3.25,1.62011065446059,-1.61758995967974,0.36459508982942,17.1099743961,1.78068634738112,-4.39902490058014,-0.324582731504379,1.06786909277278,-0.194844389780114,16.2106091723771,-3.14393237386309,2.64221150895281,-0.0116806402847839,-0.17979282565473,-0.190504336548807,13.254756893421,1.05569701474758,0.575067534097119,WALK
3.26,1.10410637375523,-0.863911226226606,0.0704814401545475,21.1603660743603,8.3111637635612,1.70580449454699,-0.324582731504379,1.06786909277278,-0.194844389780114,16.2106091723771,-3.14393237386309,2.64221150895281,-0.0116806402847839,-0.17979282565473,-0.190504336548807,13.254756893421,1.05569701474758,0.575067534097119,WALK
3.27,0.330321108810761,-0.62932538779808,-0.0558729776924619,17.1733407753494,7.02459310938695,4.4487757525177,-0.324582731504379,1.06786909277278,-0.194844389780114,16.2106091723771,-3.14393237386309,2.64221150895281,-0.0116806402847839,-0.17979282565473,-0.190504336548807,13.254756893421,1.05569701474758,0.575067534097119,WALK
3.28,0.026069099426978,-0.802316228794674,-0.114653781622965,12.0209194716777,1.98839351874197,-0.499832637147888,-0.324582731504379,1.06786909277278,-0.194844389780114,16.2106091723771,-3.14393237386309,2.64221150895281,-0.0116806402847839,-0.17979282565473,-0.190504336548807,13.254756893421,1.05569701474758,0.575067534097119,WALK
3.29,0.367721062870584,-0.893254934732908,-0.0980864529417334,8.27742014115715,-1.56962986298772,-4.71742502711129,0.0253300229079444,2.00797694465607,-0.0683220046944301,13.6518411188503,0.363942158286471,2.83116409716481,0.312689749543996,-0.152413364018875,-0.503636069351994,13.178902819075,0.878614885455174,1.61311689845364,WALK
3.3,0.799820626054719,-0.97987107884088,-0.0870301571901557,6.09679027285703,-3.07358723127565,-4.74901636200376,0.238511752218031,2.66789530519717,-0.239649957267304,11.445607464436,4.88089363705067,0.0590816891690457,0.312689749543996,-0.152413364018875,-0.503636069351994,13.178902819075,0.878614885455174,1.61311689845364,WALK
3.31,0.953082038482617,-1.08712007904706,0.0220599078613476,4.99177151459975,-3.27005332900927,-3.45275994106495,0.176307313475434,3.09792650627925,-0.297961008900056,12.0474501898937,2.56319820092021,-0.482320744378931,0.312689749543996,-0.152413364018875,-0.503636069351994,13.178902819075,0.878614885455174,1.61311689845364,WALK
3.32,0.825384658274251,-1.02462278007758,0.197636379570129,4.10502375808063,-1.39819231351319,-2.3415659228343,0.0663949018918246,3.57037235608495,-0.0276179855892877,12.2662668440238,-0.514235573220974,-0.382182542744901,-0.0208611403595872,-0.294527201094909,-0.25506140861388,8.01605319639113,1.39638893849092,1.10627393897128,WALK
3.33,0.635497481908111,-0.928087200849386,0.329150870453498,4.92473254100566,1.00039488992415,-3.08225335720044,-0.394147136473378,3.72722379061122,0.407993411625817,11.588703077498,-2.44288263333763,-1.72560212577356,-0.282645322138409,-0.185431298403217,-0.0964990361320168,6.68640337916305,1.39866229084327,1.32858203628113,WALK
3.34,0.481120293118649,-0.938856315344553,0.367278317900887,7.15104359990084,2.90452837038436,-3.98257710461278,-0.816446027196448,3.77445056694702,0.678602055726655,12.0238303327168,-1.38710582906746,-5.67804009302034,-0.282645322138409,-0.185431298403217,-0.0964990361320168,6.68640337916305,1.39866229084327,1.32858203628113,WALK
3.35,0.457297636152311,-1.07717516969149,0.40785278394437,9.21620386232983,4.65094415988609,-4.42543755926826,-0.797705411868297,3.9313576728916,0.83235170211813,13.7801192523697,0.791106609548765,-7.97388445075468,-0.282645322138409,-0.185431298403217,-0.0964990361320168,6.68640337916305,1.39866229084327,1.32858203628113,WALK
3.36,0.406937231561873,-1.15422923312274,0.413176176888824,9.8705009892371,4.86780953830084,-4.13740737184972,-0.797705411868297,3.9313576728916,0.83235170211813,13.7801192523697,0.791106609548765,-7.97388445075468,-0.282645322138409,-0.185431298403217,-0.0964990361320168,6.68640337916305,1.39866229084327,1.32858203628113,WALK
3.37,0.250565976887829,-1.29644251530027,0.44274886353832,10.0078170896469,3.9633493664578,-3.42352506664225,0.140694403414668,3.89627194498586,1.09353461823533,15.5879862656589,-1.39430905606566,-7.13274087721428,-0.334715584554404,-0.0337379024140246,-0.0758571377689753,6.89376872104649,1.67329795669988,0.979500503489306,WALK
3.38,-0.0279511200817846,-1.27796415954537,0.509604643426136,9.71871725573412,3.16690645138978,-2.9671411711439,0.435112560195175,3.44483458066328,1.13173618047705,14.4186592941822,-3.29661596541003,-4.87824478037895,-0.383989501975608,0.22809170097644,-0.113112483316814,8.94195742246996,1.64230469630618,0.970382893330259,WALK
3.39,-0.289819759753109,-1.18362042860656,0.529176233438529,9.20878289448519,1.89776076691993,-2.82200394275287,0.435112560195175,3.44483458066328,1.13173618047705,14.4186592941822,-3.29661596541003,-4.87824478037895,-0.383989501975608,0.22809170097644,-0.113112483316814,8.94195742246996,1.64230469630618,0.970382893330259,WALK
3.4,-0.411020183986423,-1.11553989809309,0.533672575781873,8.99413588694001,0.741246630212148,-2.23736735340762,0.435112560195175,3.44483458066328,1.13173618047705,14.4186592941822,-3.29661596541003,-4.87824478037895,-0.383989501975608,0.22809170097644,-0.113112483316814,8.94195742246996,1.64230469630618,0.970382893330259,WALK
3.41,-0.415476275937954,-1.02934619353899,0.502780183048304,9.4066212951264,0.180869350738755,-1.707461874952,0.540018469990207,2.8748729480379,0.916067306787386,13.0892211214224,-1.27188118530369,-4.4818373914526,-0.534307436307705,0.238006244835788,-0.252271189828818,11.5255136061137,0.779784619944573,0.872707456916038,WALK
3.42,-0.312669558473045,-0.966216752540224,0.461070526984869,9.64258538416031,-0.289804811063198,-1.51896885276095,0.84510444203599,2.67831432437021,0.719298031142036,11.250754289899,0.0714721674883066,-4.51971429912962,-0.529113680549232,0.0995792115841945,-0.208910147842629,9.77041623125777,0.36562558387254,0.562977313714312,WALK
3.43,-0.103284763896066,-0.959619351931781,0.410622680185114,9.73634178689751,-0.0922864400196322,-1.50325710058783,0.84510444203599,2.67831432437021,0.719298031142036,11.250754289899,0.0714721674883066,-4.51971429912962,-0.458363207596459,0.0921876153108749,-0.162853247115184,9.46435476906737,0.399889778040037,0.604215848731554,WALK
3.44,0.0922548908872482,-0.941582249677896,0.375736520540536,9.74527358488103,0.44749492915054,-1.75129619040771,0.863050985288612,2.55448070179772,0.607765338993979,9.85325752824761,1.12653467154448,-3.2812929431658,-0.357356766818818,0.0813949674079028,-0.10730557845656,9.50676321746603,0.359612205422742,0.729982420279208,WALK
3.45,0.225833590857131,-0.947927028912234,0.329212721638069,9.60265144384781,0.478552373719315,-2.00417724530981,0.714475884031018,2.41284115927645,0.539996199279442,9.79064982206981,1.27544962131942,-2.39657918535251,-0.357356766818818,0.0813949674079028,-0.10730557845656,9.50676321746603,0.359612205422742,0.729982420279208,WALK
3.46,0.305626171561366,-0.942409765991439,0.299784060729632,9.37837254676776,0.376387958833236,-2.1565441997114,0.542201663369135,2.13652068223629,0.505667890056905,9.48034355182738,1.46478153201614,-2.50068162124803,-0.357356766818818,0.0813949674079028,-0.10730557845656,9.50676321746603,0.359612205422742,0.729982420279208,WALK
3.47,0.351348522770653,-0.91774364665981,0.309446165602006,9.27098832082797,0.508230744813231,-2.4697733952925,0.542201663369135,2.13652068223629,0.505667890056905,9.48034355182738,1.46478153201614,-2.50068162124803,-0.357356766818818,0.0813949674079028,-0.10730557845656,9.50676321746603,0.359612205422742,0.729982420279208,WALK
3.48,0.388313187003892,-0.867983486144565,0.329957862232472,9.27693577076541,0.710303668206715,-2.82871630066725,0.608499522282936,1.89225811283117,0.467291007521097,9.22970041569685,0.118302482068152,-3.73146982962229,-0.203049234653367,0.0134845785851887,-0.0053067364168012,9.58102964821196,0.0750426088564712,0.276914607731833,WALK
3.49,0.47768155858838,-0.851011516673702,0.346419146133896,9.28628206602729,0.481045504999781,-2.9421413686046,0.827122158720008,1.7350581658058,0.394077917990205,7.85411707372505,0.861190409680906,-3.82276246068271,-0.119598820536289,0.003728369415839,0.071917773853941,9.41231990540098,-0.175770441445689,0.0225540798035726,WALK
3.5,0.52111124363337,-0.853306371816996,0.369757515698715,8.9358417904731,0.842579458878206,-2.67780622411457,0.870753218252271,1.5373670782225,0.334765830178939,6.95434328244229,1.03732127203988,-3.24609317989782,-0.0952544011578647,0.0120334482446425,0.115108583158054,9.10662442476627,-0.310386371278078,-0.0165127113048626,WALK
3.51,0.496099633626316,-0.87980844952314,0.375145842155913,8.91854989032317,0.739609444537069,-2.60541414534702,0.904666084789922,1.34627801865216,0.242907146154797,5.88895573287726,1.16559955386871,-2.99116595887836,-0.0878116414684225,0.0425829126908984,0.142780636307194,9.02680712477289,-0.228882902747569,-0.0974424882922444,WALK
3.52,0.472886740306218,-0.897644724264351,0.370766324371288,8.95372000533441,0.613542667375458,-3.12818347632041,0.975283048058267,1.06700539485525,0.119415493453899,4.88682240997296,1.78054749621822,-3.3028425942879,-0.077094096007352,0.0835944441572378,0.138847220288586,9.04285187733609,-0.0908466798747948,-0.143544147571884,WALK
3.53,0.411096117231681,-0.909988685399387,0.375863758214834,8.70379674110138,0.902540493699922,-3.64858819052882,0.991443648095905,0.886637878583975,0.0587272591250488,4.8072591941254,1.70234641836337,-3.65173829103163,-0.0230169918345534,0.130371270694671,0.104193871701986,8.9605581708089,0.199807336309059,-0.340870725033243,WALK
3.54,0.352196971410267,-0.899619355153804,0.382117328294551,8.64255801938774,1.39075850130349,-4.03230739984776,0.992856325624055,0.783894206656352,0.047482301318367,4.73715519951501,1.44292954555664,-3.94740091217276,0.0441839151117143,0.169122825733363,0.063235178171402,8.85810750128804,0.455132171179956,-0.342915600854622,WALK
3.55,0.288080917847652,-0.881724118698293,0.380936528122264,8.53868830921369,1.35115207897254,-3.96494190608664,0.969573405613115,0.696671306167658,0.0732806805434559,4.69460188478443,1.28971577011674,-4.03866266962076,0.0441839151117143,0.169122825733363,0.063235178171402,8.85810750128804,0.455132171179956,-0.342915600854622,WALK
3.56,0.153748495423873,-0.878341315690285,0.398194952292673,8.44260299508721,1.20349085775011,-3.79395364413966,0.944044738464899,0.598227261965189,0.103282668959753,4.43183999139065,1.65207507758183,-3.59208201038167,0.0688114493706041,0.192735459847737,0.0510173513903966,8.83907739141049,0.48674945756929,-0.272249035050786,WALK
